"Time (s)"	"Gyroscope x (rad/s)"	"Gyroscope y (rad/s)"	"Gyroscope z (rad/s)"
2.062289700E-2	-8.093964309E-3	6.566801574E-3	4.886921961E-3
3.062289700E-2	-9.162978269E-3	1.145372353E-2	2.443460934E-2
4.062289700E-2	-7.635815535E-3	1.878410578E-2	4.642575979E-2
5.062289700E-2	-2.596177394E-3	2.367102914E-2	6.704246253E-2
6.062289700E-2	2.290744567E-3	1.878410578E-2	7.925976813E-2
7.062289700E-2	2.290744567E-3	2.107485011E-2	8.048149943E-2
8.062289700E-2	-3.817907767E-3	2.122756653E-2	6.963863969E-2
9.062289700E-2	-2.748893574E-3	2.000583708E-2	5.375614017E-2
1.006228970E-1	1.985311974E-3	1.756237634E-2	3.527746722E-2
1.106228970E-1	3.054326167E-3	1.511891466E-2	1.939497143E-2
1.206228970E-1	2.901609987E-3	1.511891466E-2	8.552113548E-3
1.306228970E-1	2.901609987E-3	1.267545391E-2	7.330383174E-3
1.406228970E-1	1.679879380E-3	9.010262787E-3	7.330383174E-3
1.506228970E-1	6.108652451E-4	7.788531948E-3	1.588249579E-2
1.606228970E-1	3.054326167E-3	1.679879380E-3	3.039054573E-2
1.706228970E-1	6.108652451E-4	-1.985311974E-3	3.283400834E-2
1.806228970E-1	-4.276056774E-3	-5.650503561E-3	2.687807009E-2
1.906228970E-1	-6.719517522E-3	-7.941247895E-3	1.710422710E-2
2.006228970E-1	-6.872233935E-3	-1.038470957E-2	3.665191587E-3
2.106228970E-1	-3.359758761E-3	-1.527163107E-2	-8.552113548E-3
2.206228970E-1	-2.138028387E-3	-1.649336144E-2	-1.710422710E-2
2.306228970E-1	2.596177394E-3	-1.893682219E-2	-1.954768784E-2
2.406228970E-1	3.817907767E-3	-1.527163107E-2	-1.954768784E-2
2.506228970E-1	5.039638374E-3	-1.771509275E-2	-2.321287990E-2
2.606228970E-1	4.886921961E-3	-1.282817032E-2	-3.543018550E-2
2.706228970E-1	6.108652335E-3	-1.282817032E-2	-4.520402849E-2
2.806228970E-1	4.886921961E-3	-1.160643995E-2	-4.520402849E-2
2.906228970E-1	1.527163113E-4	-1.527163107E-2	-3.054326214E-2
3.006228970E-1	-7.024950348E-3	-2.015855350E-2	-7.330383174E-3
3.106228970E-1	-1.175915636E-2	-2.015855350E-2	1.466076635E-2
3.206228970E-1	-2.122756653E-2	-2.748893574E-2	3.680463135E-2
3.306228970E-1	-2.351831272E-2	-2.626720630E-2	5.024366826E-2
3.406228970E-1	-1.496619824E-2	-2.382374369E-2	5.619960278E-2
3.506228970E-1	-9.010262787E-3	-2.626720630E-2	5.497787148E-2
3.606228970E-1	-6.566801574E-3	-3.115412779E-2	4.886921868E-2
3.706228970E-1	-4.123340361E-3	-2.993239649E-2	4.276056588E-2
3.806228970E-1	6.108652451E-4	-2.626720630E-2	3.527746722E-2
3.906228970E-1	3.054326167E-3	-2.504547499E-2	2.672535367E-2
4.006228970E-1	4.123340361E-3	-2.504547499E-2	1.572977938E-2
4.106228970E-1	5.192354787E-3	-2.382374369E-2	1.069014193E-3
4.206228970E-1	6.414085161E-3	-2.382374369E-2	-8.704829961E-3
4.306228970E-1	8.704829961E-3	-2.626720630E-2	-1.237002108E-2
4.406228970E-1	8.704829961E-3	-2.626720630E-2	-1.359175146E-2
4.506228970E-1	9.926560335E-3	-2.138028294E-2	-1.481348183E-2
4.606228970E-1	1.114829071E-2	-1.908953860E-2	-1.359175146E-2
4.706228970E-1	1.359175146E-2	-1.420261711E-2	-9.926560335E-3
4.806228970E-1	1.130100712E-2	-1.542434748E-2	-6.261368748E-3
4.906228970E-1	5.192354787E-3	-1.175915636E-2	-1.527163113E-4
5.006228970E-1	2.901609987E-3	-1.053742506E-2	9.621127509E-3
5.106228970E-1	5.497787148E-3	-8.093964309E-3	2.428189293E-2
5.206228970E-1	7.941247895E-3	-5.650503561E-3	3.772092983E-2
5.306228970E-1	8.093964309E-3	1.679879380E-3	4.627304152E-2
5.406228970E-1	4.581489135E-3	1.023199316E-2	5.482515693E-2
5.506228970E-1	-1.527163084E-3	1.023199316E-2	5.726861581E-2
5.606228970E-1	-5.192354787E-3	6.566801574E-3	5.497787148E-2
5.706228970E-1	-3.970623948E-3	9.010262787E-3	5.131268129E-2
5.806228970E-1	-7.635815535E-3	1.023199316E-2	4.886921868E-2
5.906228970E-1	-7.635815535E-3	1.145372353E-2	5.009094998E-2
6.006228970E-1	-3.970623948E-3	1.511891466E-2	5.619960278E-2
6.106228970E-1	-3.054326226E-4	1.878410578E-2	5.482515693E-2
6.206228970E-1	3.359758761E-3	1.756237634E-2	5.115996301E-2
6.306228970E-1	-1.527163084E-3	1.756237634E-2	5.009094998E-2
6.406228970E-1	-3.970623948E-3	1.634064503E-2	5.131268129E-2
6.506228970E-1	-6.414085161E-3	1.511891466E-2	5.742133409E-2
6.606228970E-1	-3.970623948E-3	1.756237634E-2	5.864306539E-2
6.706228970E-1	-3.970623948E-3	1.756237634E-2	6.108652428E-2
6.806228970E-1	-2.748893574E-3	2.122756653E-2	6.215553731E-2
6.906228970E-1	2.290744567E-3	2.718350291E-2	6.582073122E-2
7.006228970E-1	2.290744567E-3	2.000583708E-2	6.826419383E-2
7.106228970E-1	8.246680722E-3	2.718350291E-2	6.582073122E-2
7.206228970E-1	8.246680722E-3	2.351831272E-2	5.726861581E-2
7.306228970E-1	1.053742506E-2	3.084869497E-2	4.505131021E-2
7.406228970E-1	1.542434748E-2	2.840523422E-2	3.649919853E-2
7.506228970E-1	1.771509275E-2	3.329215571E-2	3.145955876E-2
7.606228970E-1	1.664607786E-2	2.474004216E-2	3.878994286E-2
7.706228970E-1	9.468411095E-3	2.596177347E-2	6.215553731E-2
7.806228970E-1	-4.886921961E-3	1.878410578E-2	9.514226019E-2
7.906228970E-1	-1.786780916E-2	2.901609987E-3	1.539380401E-1
8.006228970E-1	-1.970040426E-2	1.145372353E-2	2.150245607E-1
8.106228970E-1	-1.985311974E-3	2.840523422E-2	2.904664278E-1
8.206228970E-1	4.505131021E-2	1.000291854E-1	3.755294085E-1
8.306228970E-1	9.911288321E-2	8.261952549E-2	4.543310404E-1
8.406228970E-1	1.171334088E-1	6.673702598E-2	4.382958114E-1
8.506228970E-1	8.399397135E-2	-1.985312104E-1	4.862487316E-1
8.606228970E-1	6.734789163E-2	-5.784893632E-1	6.803511381E-1
8.706228970E-1	6.123924255E-2	-6.418666840E-1	1.002735257E0
8.806228970E-1	7.192938030E-2	-3.010038435E-1	9.952521920E-1
8.906228970E-1	9.941831976E-2	-2.913827300E-1	9.193521738E-1
9.006228970E-1	1.672243625E-1	-3.245221674E-1	9.016370773E-1
9.106228970E-1	2.716823220E-1	-3.237585723E-1	8.848382831E-1
9.206228970E-1	3.872885704E-1	-2.304489166E-1	8.629998565E-1
9.306228970E-1	5.884159207E-1	5.131268129E-2	8.232936263E-1
9.406228970E-1	8.625417352E-1	3.776674271E-1	7.767151594E-1
9.506228970E-1	1.160643935E0	5.505422950E-1	7.385360599E-1
9.606228970E-1	1.389260292E0	6.323982477E-1	7.047857642E-1
9.706228970E-1	1.516778350E0	6.440047026E-1	6.693555713E-1
9.806228970E-1	1.555262923E0	5.610797405E-1	6.446155310E-1
9.906228970E-1	1.553277612E0	3.833179474E-1	6.165157557E-1
1.000622897E0	1.531744599E0	2.008219510E-1	5.752823353E-1
1.010622897E0	1.517542005E0	9.132435173E-2	5.241223574E-1
1.020622897E0	1.542587519E0	5.222897977E-2	4.653266072E-1
1.030622897E0	1.606422901E0	1.679879427E-2	4.121813178E-1
1.040622897E0	1.685071826E0	-1.160643995E-2	3.674354553E-1
1.050622897E0	1.801288843E0	-1.572977938E-2	3.103195429E-1
1.060622897E0	1.920102239E0	1.557706390E-2	2.469422817E-1
1.070622897E0	2.042580605E0	5.772676691E-2	1.884519309E-1
1.080622897E0	2.163837433E0	9.621127695E-2	1.311833113E-1
1.090622897E0	2.282650709E0	1.175915599E-1	7.269296050E-2
1.100622897E0	2.370920658E0	1.197295859E-1	2.794708498E-2
1.110622897E0	2.466521025E0	1.023199260E-1	-2.916881628E-2
1.120622897E0	2.551126003E0	6.414084882E-2	-8.613199741E-2
1.130622897E0	2.616183043E0	6.719517522E-3	-1.464549452E-1
1.140622897E0	2.667801142E0	-4.581489414E-2	-2.079996169E-1
1.150622897E0	2.702467918E0	-8.002334833E-2	-2.693915665E-1
1.160622897E0	2.705674887E0	-9.101892263E-2	-3.158173263E-1
1.170622897E0	2.685821772E0	-6.780604273E-2	-3.704897761E-1
1.180622897E0	2.640617847E0	-2.367102914E-2	-4.262312353E-1
1.190622897E0	2.591595888E0	3.359758761E-3	-4.783074856E-1
1.200622897E0	2.547460794E0	2.306016348E-2	-5.242751241E-1
1.210622897E0	2.503478527E0	5.115996301E-2	-5.616905689E-1
1.220622897E0	2.474156857E0	7.330382615E-2	-5.894849896E-1
1.230622897E0	2.435214281E0	1.160643995E-1	-6.134614348E-1
1.240622897E0	2.390162945E0	1.637118906E-1	-6.362161636E-1
1.250622897E0	2.348776817E0	2.076941878E-1	-6.517932415E-1
1.260622897E0	2.302656651E0	2.554943860E-1	-6.586654782E-1
1.270622897E0	2.261423111E0	2.848159075E-1	-6.545420885E-1
1.280622897E0	2.220189810E0	3.094032407E-1	-6.517932415E-1
1.290622897E0	2.161852121E0	3.254384696E-1	-6.426302195E-1
1.300622897E0	2.100154638E0	3.561344445E-1	-6.262896061E-1
1.310622897E0	2.029905319E0	3.782783151E-1	-6.023131609E-1
1.320622897E0	1.957059503E0	3.798054755E-1	-5.772676468E-1
1.330622897E0	1.886810064E0	3.837760985E-1	-5.510004759E-1
1.340622897E0	1.826181650E0	3.900374472E-1	-5.271766782E-1
1.350622897E0	1.747380018E0	3.903428912E-1	-4.935791194E-1
1.360622897E0	1.666287661E0	3.785837293E-1	-4.573853612E-1
1.370622897E0	1.572825313E0	3.594942093E-1	-4.236350358E-1
1.380622897E0	1.479362965E0	3.475823104E-1	-3.897320330E-1
1.390622897E0	1.384831548E0	3.321579695E-1	-3.572034538E-1
1.400622897E0	1.311985850E0	3.239113092E-1	-3.307835162E-1
1.410622897E0	1.218523502E0	2.974913716E-1	-2.958115041E-1
1.420622897E0	1.125061035E0	2.577851415E-1	-2.631302178E-1
1.430622897E0	1.024268270E0	2.154827118E-1	-2.316706479E-1
1.440622897E0	9.246972799E-1	1.841758788E-1	-2.026545405E-1
1.450622897E0	8.226827979E-1	1.481348276E-1	-1.748601794E-1
1.460622897E0	7.388415337E-1	1.217148975E-1	-1.545489132E-1
1.470622897E0	6.356052756E-1	8.552113175E-2	-1.291979998E-1
1.480622897E0	5.287038684E-1	5.192354694E-2	-1.062905490E-1
1.490622897E0	4.218024611E-1	2.306016348E-2	-8.338310570E-2
1.500622897E0	3.112358451E-1	-1.985311974E-3	-6.032294407E-2
1.510622897E0	2.018909603E-1	-2.718350291E-2	-4.092797264E-2
1.520622897E0	1.131627858E-1	-4.138612002E-2	-2.550362423E-2
1.530622897E0	-1.069014193E-3	-5.910121277E-2	-4.886921961E-3
1.540622897E0	-1.128573567E-1	-7.330382615E-2	1.328631863E-2
1.550622897E0	-2.293798923E-1	-9.117163718E-2	3.145955876E-2
1.560622897E0	-3.399465084E-1	-1.149953827E-1	4.948008433E-2
1.570622897E0	-4.408919811E-1	-1.487456858E-1	6.872233748E-2
1.580622897E0	-5.271766782E-1	-1.835650057E-1	8.414668590E-2
1.590622897E0	-6.317873597E-1	-2.197587788E-1	1.035416573E-1
1.600622897E0	-7.350236177E-1	-2.521346211E-1	1.191187203E-1
1.610622897E0	-8.359690905E-1	-2.858849466E-1	1.359175146E-1
1.620622897E0	-9.392052889E-1	-3.158173263E-1	1.514945775E-1
1.630622897E0	-1.042594314E0	-3.275764883E-1	1.670716405E-1
1.640622897E0	-1.122770309E0	-3.321579695E-1	1.763873398E-1
1.650622897E0	-1.226006508E0	-3.378084898E-1	1.882992089E-1
1.660622897E0	-1.326799273E0	-3.459024429E-1	2.014328092E-1
1.670622897E0	-1.424079657E0	-3.541491330E-1	2.145664245E-1
1.680622897E0	-1.515098572E0	-3.622430861E-1	2.301434875E-1
1.690622897E0	-1.598939776E0	-3.631593883E-1	2.467895597E-1
1.700622897E0	-1.663386106E0	-3.701843321E-1	2.559525371E-1
1.710622897E0	-1.739896894E0	-3.686571717E-1	2.687807083E-1
1.720622897E0	-1.815186024E0	-3.659082949E-1	2.805398703E-1
1.730622897E0	-1.889253497E0	-3.607159257E-1	2.945897579E-1
1.740622897E0	-1.962099195E0	-3.555235863E-1	3.051272035E-1
1.750622897E0	-2.028836250E0	-3.466660380E-1	3.118467033E-1
1.760622897E0	-2.083508730E0	-3.391829133E-1	3.171917796E-1
1.770622897E0	-2.147954941E0	-3.316998184E-1	3.214678466E-1
1.780622897E0	-2.203849077E0	-3.326161206E-1	3.243694305E-1
1.790622897E0	-2.259743214E0	-3.312416673E-1	3.249803185E-1
1.800622897E0	-2.310750484E0	-3.309362531E-1	3.242167234E-1
1.810622897E0	-2.358245373E0	-3.307835162E-1	3.222314119E-1
1.820622897E0	-2.404518366E0	-3.245221674E-1	3.141374588E-1
1.830622897E0	-2.437352419E0	-3.170390725E-1	3.058907688E-1
1.840622897E0	-2.477669477E0	-3.144428730E-1	2.915354371E-1
1.850622897E0	-2.508212805E0	-3.057380617E-1	2.735149264E-1
1.860622897E0	-2.536159754E0	-2.886338234E-1	2.554943860E-1
1.870622897E0	-2.555707455E0	-2.666426897E-1	2.336559594E-1
1.880622897E0	-2.555860281E0	-2.544253767E-1	2.105957866E-1
1.890622897E0	-2.540283203E0	-2.483167201E-1	1.872301996E-1
1.900622897E0	-2.503936529E0	-2.339613885E-1	1.600466967E-1
1.910622897E0	-2.456747293E0	-2.121229619E-1	1.290452778E-1
1.920622897E0	-2.414444923E0	-2.134974003E-1	9.575312585E-2
1.930622897E0	-2.368477345E0	-2.185370475E-1	6.108652428E-2
1.940622897E0	-2.315331936E0	-2.296853364E-1	2.764165215E-2
1.950622897E0	-2.258368731E0	-2.153300047E-1	-3.359758761E-3
1.960622897E0	-2.173458576E0	-2.035708427E-1	-4.199698567E-2
1.970622897E0	-2.082745075E0	-2.197587788E-1	-7.834346592E-2
1.980622897E0	-2.002721786E0	-2.273945808E-1	-1.143845171E-1
1.990622897E0	-1.936137438E0	-2.189951837E-1	-1.528690308E-1
2.000622897E0	-1.869553089E0	-2.241875380E-1	-1.876883507E-1
2.010622897E0	-1.811368227E0	-2.365575731E-1	-2.150245607E-1
2.020622897E0	-1.732719302E0	-2.527455091E-1	-2.475531399E-1
2.030622897E0	-1.649030685E0	-2.567161322E-1	-2.751947939E-1
2.040622897E0	-1.561676979E0	-2.631302178E-1	-3.040581644E-1
2.050622897E0	-1.469589114E0	-2.744311988E-1	-3.292563558E-1
2.060622897E0	-1.384678841E0	-2.881756723E-1	-3.532328308E-1
2.070622897E0	-1.315498352E0	-2.970332205E-1	-3.686571717E-1
2.080622897E0	-1.233031511E0	-3.034473062E-1	-3.889684379E-1
2.090622897E0	-1.152855396E0	-3.123048544E-1	-4.079052806E-1
2.100622897E0	-1.070388675E0	-3.248275816E-1	-4.221078753E-1
2.110622897E0	-9.902125597E-1	-3.373503387E-1	-4.338670373E-1
2.120622897E0	-9.063712955E-1	-3.462078869E-1	-4.444044530E-1
2.130622897E0	-8.384125233E-1	-3.538436890E-1	-4.511239827E-1
2.140622897E0	-7.557930350E-1	-3.627012372E-1	-4.592179358E-1
2.150622897E0	-6.695083380E-1	-3.617849350E-1	-4.660901725E-1
2.160622897E0	-5.832235813E-1	-3.559817076E-1	-4.731151462E-1
2.170622897E0	-4.969388843E-1	-3.466660380E-1	-4.763221741E-1
2.180622897E0	-4.056145251E-1	-3.287982047E-1	-4.796819389E-1
2.190622897E0	-3.291036487E-1	-3.095559776E-1	-4.827362597E-1
2.200622897E0	-2.365575731E-1	-2.796235681E-1	-4.848742783E-1
2.210622897E0	-1.415680200E-1	-2.422080636E-1	-4.870123267E-1
2.220622897E0	-3.817907721E-2	-1.951714456E-1	-4.879286289E-1
2.230622897E0	6.536258012E-2	-1.518000066E-1	-4.888449013E-1
2.240622897E0	1.773036420E-1	-1.072068512E-1	-4.886921942E-1
2.250622897E0	2.674062550E-1	-7.345654815E-2	-4.859432876E-1
2.260622897E0	3.746131063E-1	-3.985895589E-2	-4.807509482E-1
2.270622897E0	4.744895697E-1	-7.330383174E-3	-4.706716835E-1
2.280622897E0	5.635231733E-1	2.641992271E-2	-4.593706727E-1
2.290622897E0	6.462954283E-1	5.406157300E-2	-4.479169548E-1
2.300622897E0	7.328855991E-1	8.292495459E-2	-4.327980280E-1
2.310622897E0	8.084801435E-1	1.178969890E-1	-4.213443100E-1
2.320622897E0	9.072875977E-1	1.698205322E-1	-4.039346576E-1
2.330622897E0	1.009760261E0	2.315179259E-1	-3.840815127E-1
2.340622897E0	1.112232924E0	2.871066630E-1	-3.631593883E-1
2.350622897E0	1.214705586E0	3.437644243E-1	-3.371976018E-1
2.360622897E0	1.313665748E0	4.030183554E-1	-3.112358451E-1
2.370622897E0	1.389260292E0	4.465425014E-1	-2.900082767E-1
2.380622897E0	1.479668379E0	4.961752892E-1	-2.603813112E-1
2.390622897E0	1.567632914E0	5.419901609E-1	-2.270891517E-1
2.400622897E0	1.654375792E0	5.890268087E-1	-1.899790913E-1
2.410622897E0	1.743562102E0	6.349944472E-1	-1.518000066E-1
2.420622897E0	1.830304980E0	6.760751009E-1	-1.110247597E-1
2.430622897E0	1.896431208E0	7.012733221E-1	-7.880161703E-2
2.440622897E0	1.979508877E0	7.325801253E-1	-3.436116874E-2
2.450622897E0	2.052965403E0	7.553348541E-1	1.252273750E-2
2.460622897E0	2.122603893E0	7.733554244E-1	6.078109145E-2
2.470622897E0	2.191173553E0	7.924449444E-1	1.076650023E-1
2.480622897E0	2.247525930E0	8.008443117E-1	1.585195363E-1
2.490622897E0	2.289217472E0	8.042041063E-1	1.971567571E-1
2.500622897E0	2.338239431E0	7.991644740E-1	2.466368377E-1
2.510622897E0	2.379930973E0	7.941248417E-1	2.964223623E-1
2.520622897E0	2.416735649E0	7.829765081E-1	3.436116874E-1
2.530622897E0	2.440253973E0	7.583891749E-1	3.897320330E-1
2.540622897E0	2.455067396E0	7.351763248E-1	4.323398769E-1
2.550622897E0	2.453998327E0	7.182248235E-1	4.628831446E-1
2.560622897E0	2.450638533E0	6.986771226E-1	5.019785166E-1
2.570622897E0	2.439948559E0	6.937901974E-1	5.435173512E-1
2.580622897E0	2.413528681E0	6.988298297E-1	5.780312419E-1
2.590622897E0	2.374891281E0	7.002043128E-1	6.052147150E-1
2.600622897E0	2.324036837E0	6.869179606E-1	6.349944472E-1
2.610622897E0	2.274404049E0	6.713408828E-1	6.647741199E-1
2.620622897E0	2.201405525E0	6.241515875E-1	6.947064996E-1
2.630622897E0	2.129781723E0	5.879577994E-1	7.124215961E-1
2.640622897E0	2.058157682E0	5.674937963E-1	7.315111160E-1
2.650622897E0	1.985312104E0	5.543602109E-1	7.553348541E-1
2.660622897E0	1.918422341E0	5.010622144E-1	7.779368758E-1
2.670622897E0	1.860084653E0	4.502076805E-1	7.906123400E-1
2.680622897E0	1.785864592E0	4.176791012E-1	7.974845767E-1
2.690622897E0	1.705535769E0	4.057672322E-1	8.055785298E-1
2.700622897E0	1.627803206E0	3.659082949E-1	8.171849847E-1
2.710622897E0	1.554652095E0	2.919935882E-1	8.277224302E-1
2.720622897E0	1.472948790E0	2.350303978E-1	8.284859657E-1
2.730622897E0	1.406059027E0	2.145664245E-1	8.266534209E-1
2.740622897E0	1.318399906E0	1.881465018E-1	8.249735236E-1
2.750622897E0	1.230740786E0	1.435533315E-1	8.208501935E-1
2.760622897E0	1.147815824E0	9.269879758E-2	8.156577945E-1
2.770622897E0	1.067334294E0	4.321871698E-2	8.077165484E-1
2.780622897E0	9.833403230E-1	1.435533352E-2	7.976372838E-1
2.790622897E0	9.162978530E-1	-1.221730490E-3	7.884743214E-1
2.800622897E0	8.297077417E-1	-3.375030309E-2	7.745771408E-1
2.810622897E0	7.443392873E-1	-7.483099401E-2	7.570147514E-1
2.820622897E0	6.553056836E-1	-1.157589629E-1	7.383833528E-1
2.830622897E0	5.650503635E-1	-1.409571618E-1	7.173085213E-1
2.840622897E0	4.749477208E-1	-1.527163088E-1	6.960809231E-1
2.850622897E0	4.042400718E-1	-1.597412676E-1	6.772968173E-1
2.860622897E0	3.115412891E-1	-1.751656085E-1	6.550002694E-1
2.870622897E0	2.226603776E-1	-1.797471046E-1	6.301075220E-1
2.880622897E0	1.287398487E-1	-1.768454909E-1	6.029239893E-1
2.890622897E0	3.375030309E-2	-1.618792862E-1	5.745187402E-1
2.900622897E0	-6.123924255E-2	-1.395827085E-1	5.473352671E-1
2.910622897E0	-1.586722434E-1	-1.171334088E-1	5.189300179E-1
2.920622897E0	-2.354885489E-1	-1.010981947E-1	4.915938079E-1
2.930622897E0	-3.329215646E-1	-7.620543987E-2	4.583016634E-1
2.940622897E0	-4.243986309E-1	-5.390885845E-2	4.213443100E-1
2.950622897E0	-5.073235631E-1	-3.894266114E-2	3.842342496E-1
2.960622897E0	-5.891795158E-1	-3.375030309E-2	3.448334336E-1
2.970622897E0	-6.745479703E-1	-2.855795063E-2	3.003929853E-1
2.980622897E0	-7.405213714E-1	-1.970040426E-2	2.631302178E-1
2.990622897E0	-8.260425329E-1	2.596177394E-3	2.115120888E-1
3.000622897E0	-9.077457786E-1	2.489275858E-2	1.597412676E-1
3.010622897E0	-9.860892296E-1	4.963280261E-2	1.030835137E-1
3.020622897E0	-1.065501690E0	7.315111160E-2	4.535674304E-2
3.030622897E0	-1.138805509E0	9.773843735E-2	-1.511891466E-2
3.040622897E0	-1.199892044E0	1.163698286E-1	-6.337726861E-2
3.050622897E0	-1.274570346E0	1.337794960E-1	-1.273654103E-1
3.060622897E0	-1.343140006E0	1.437060535E-1	-1.913535446E-1
3.070622897E0	-1.410640597E0	1.501201391E-1	-2.590068579E-1
3.080622897E0	-1.473101497E0	1.589776874E-1	-3.255911767E-1
3.090622897E0	-1.532050014E0	1.690569520E-1	-3.933972120E-1
3.100622897E0	-1.578628540E0	1.753183305E-1	-4.466952085E-1
3.110622897E0	-1.635133505E0	1.756237596E-1	-5.145012736E-1
3.120622897E0	-1.694082022E0	1.698205322E-1	-5.823072791E-1
3.130622897E0	-1.750587106E0	1.627955884E-1	-6.501133442E-1
3.140622897E0	-1.808313847E0	1.496619880E-1	-7.166976333E-1
3.150622897E0	-1.863597155E0	1.316414624E-1	-7.820602059E-1
3.160622897E0	-1.907884836E0	1.050688252E-1	-8.341364861E-1
3.170622897E0	-1.960724711E0	6.750060618E-2	-8.972083330E-1
3.180622897E0	-2.014786243E0	2.031126991E-2	-9.564622641E-1
3.190622897E0	-2.064113617E0	-2.458732575E-2	-1.012203693E0
3.200622897E0	-2.116953611E0	-7.788532227E-2	-1.065348983E0
3.210622897E0	-2.166128159E0	-1.336267740E-1	-1.112538338E0
3.220622897E0	-2.201863766E0	-1.785253733E-1	-1.151328325E0
3.230622897E0	-2.241111755E0	-2.356412709E-1	-1.187522054E0
3.240622897E0	-2.279290915E0	-2.864958048E-1	-1.227380991E0
3.250622897E0	-2.311361313E0	-3.423899710E-1	-1.257618785E0
3.260622897E0	-2.323884010E0	-4.043927789E-1	-1.278235555E0
3.270622897E0	-2.315637350E0	-4.714352489E-1	-1.288162112E0
3.280622897E0	-2.302350998E0	-5.068654418E-1	-1.295645237E0
3.290622897E0	-2.280665398E0	-5.372560024E-1	-1.300684810E0
3.300622897E0	-2.250427485E0	-5.824599862E-1	-1.297325015E0
3.310622897E0	-2.212706566E0	-6.423248053E-1	-1.285413146E0
3.320622897E0	-2.170098782E0	-6.887505651E-1	-1.263880134E0
3.330622897E0	-2.110386610E0	-7.084509730E-1	-1.241278172E0
3.340622897E0	-2.051896334E0	-7.221954465E-1	-1.218523502E0
3.350622897E0	-1.975232720E0	-7.577783465E-1	-1.188743711E0
3.360622897E0	-1.901928902E0	-7.800748944E-1	-1.147968531E0
3.370622897E0	-1.834733725E0	-7.938193679E-1	-1.105818868E0
3.380622897E0	-1.771203756E0	-8.086328506E-1	-1.061225653E0
3.390622897E0	-1.702786922E0	-8.211556077E-1	-1.014341712E0
3.400622897E0	-1.642922044E0	-8.251262307E-1	-9.734137654E-1
3.410622897E0	-1.564578652E0	-8.290968537E-1	-9.191994667E-1
3.420622897E0	-1.477835774E0	-8.232936263E-1	-8.626944423E-1
3.430622897E0	-1.395827055E0	-8.139779568E-1	-8.072584271E-1
3.440622897E0	-1.313971162E0	-7.985535860E-1	-7.506006956E-1
3.450622897E0	-1.230740786E0	-7.745771408E-1	-6.940956116E-1
3.460622897E0	-1.168279767E0	-7.565566301E-1	-6.495024562E-1
3.470622897E0	-1.083827615E0	-7.264714837E-1	-5.940664411E-1
3.480622897E0	-9.993755221E-1	-6.939429045E-1	-5.387831330E-1
3.490622897E0	-9.161451459E-1	-6.579018831E-1	-4.833471179E-1
3.500622897E0	-8.194757104E-1	-5.815436840E-1	-4.306600094E-1
3.510622897E0	-7.228062749E-1	-5.259549618E-1	-3.778201640E-1
3.520622897E0	-6.568328738E-1	-5.262604356E-1	-3.356704414E-1
3.530622897E0	-5.845980644E-1	-5.155702829E-1	-2.863430977E-1
3.540622897E0	-5.025894046E-1	-4.416555762E-1	-2.345722616E-1
3.550622897E0	-4.240931869E-1	-3.689626157E-1	-1.864666194E-1
3.560622897E0	-3.445279896E-1	-2.926044464E-1	-1.395827085E-1
3.570622897E0	-2.501493096E-1	-1.956295967E-1	-9.651670605E-2
3.580622897E0	-1.744020283E-1	-1.375973970E-1	-5.940664560E-2
3.590622897E0	-8.139779419E-2	-7.712173462E-2	-1.634064503E-2
3.600622897E0	1.771509275E-2	2.901609987E-3	2.550362423E-2
3.610622897E0	1.178969890E-1	8.155050874E-2	7.086037099E-2
3.620622897E0	2.218967974E-1	1.638645977E-1	1.151480973E-1
3.630622897E0	3.271183372E-1	2.449569702E-1	1.580613852E-1
3.640622897E0	4.089742899E-1	2.958115041E-1	1.976149082E-1
3.650622897E0	4.995350540E-1	3.440698385E-1	2.443460971E-1
3.660622897E0	5.791002512E-1	3.998112977E-1	2.912299931E-1
3.670622897E0	6.550002694E-1	4.541783035E-1	3.381139040E-1
3.680622897E0	7.370089293E-1	4.977024496E-1	3.872885704E-1
3.690622897E0	8.251262307E-1	5.557346344E-1	4.329507351E-1
3.700622897E0	9.069821835E-1	6.041457057E-1	4.699080884E-1
3.710622897E0	1.004873276E0	6.572909951E-1	5.178610086E-1
3.720622897E0	1.098946571E0	7.006624341E-1	5.645921826E-1
3.730622897E0	1.183398724E0	7.356344461E-1	6.126978397E-1
3.740622897E0	1.264032960E0	7.706065178E-1	6.630942225E-1
3.750622897E0	1.344819784E0	8.029823899E-1	7.087563872E-1
3.760622897E0	1.410793304E0	8.258898258E-1	7.472409010E-1
3.770622897E0	1.497688890E0	8.486445546E-1	7.951938510E-1
3.780622897E0	1.583209991E0	8.628471494E-1	8.408560157E-1
3.790622897E0	1.666287661E0	8.710938692E-1	8.875871897E-1
3.800622897E0	1.749212623E0	8.706356883E-1	9.295842052E-1
3.810622897E0	1.829846859E0	8.666650653E-1	9.715811610E-1
3.820622897E0	1.888489962E0	8.555167913E-1	1.001513600E0
3.830622897E0	1.955532312E0	8.381071091E-1	1.039998055E0
3.840622897E0	2.016618967E0	8.171849847E-1	1.074817419E0
3.850622897E0	2.075109243E0	7.901542187E-1	1.104749799E0
3.860622897E0	2.129934311E0	7.533495426E-1	1.131169677E0
3.870622897E0	2.182316065E0	7.189884186E-1	1.151328325E0
3.880622897E0	2.220036983E0	6.860016584E-1	1.164461851E0
3.890622897E0	2.263866663E0	6.467535496E-1	1.179886222E0
3.900622897E0	2.300213099E0	5.919284225E-1	1.189354658E0
3.910622897E0	2.328007460E0	5.114469528E-1	1.191492677E0
3.920622897E0	2.333810568E0	4.625777006E-1	1.187827468E0
3.930622897E0	2.320218801E0	4.237877727E-1	1.175762892E0
3.940622897E0	2.302962065E0	3.885102868E-1	1.158811331E0
3.950622897E0	2.279596329E0	3.497203588E-1	1.135751247E0
3.960622897E0	2.258674145E0	3.132211566E-1	1.114065528E0
3.970622897E0	2.230421782E0	2.683225572E-1	1.088714600E0
3.980622897E0	2.183690548E0	2.380847335E-1	1.051299095E0
3.990622897E0	2.124894857E0	2.054034323E-1	1.011592865E0
4.000622897E0	2.068695068E0	1.802052408E-1	9.741773605E-1
4.010622897E0	2.006234169E0	1.389718503E-1	9.308059216E-1
4.020622897E0	1.942398787E0	1.003346145E-1	8.851437569E-1
4.030622897E0	1.877647042E0	7.147123665E-2	8.417723179E-1
4.040622897E0	1.812742591E0	5.100724846E-2	7.947356701E-1
4.050622897E0	1.752572417E0	1.114829071E-2	7.452555895E-1
4.060622897E0	1.688889742E0	-1.420261711E-2	6.921103001E-1
4.070622897E0	1.638646007E0	-2.000583708E-2	6.511823535E-1
4.080622897E0	1.574963331E0	-2.703078650E-2	6.017022729E-1
4.090622897E0	1.510058880E0	-6.444628537E-2	5.571091175E-1
4.100622897E0	1.445154428E0	-9.224065393E-2	5.076290369E-1
4.110622897E0	1.374294043E0	-1.017090604E-1	4.607451260E-1
4.120622897E0	1.302212000E0	-9.880745411E-2	4.138612151E-1
4.130622897E0	1.242194533E0	-1.072068512E-1	3.764457107E-1
4.140622897E0	1.171334147E0	-1.128573567E-1	3.332269788E-1
4.150622897E0	1.101695418E0	-1.247692257E-1	2.875648141E-1
4.160622897E0	1.030682325E0	-1.317941695E-1	2.466368377E-1
4.170622897E0	9.575312734E-1	-1.266018152E-1	2.070833147E-1
4.180622897E0	8.793405294E-1	-1.214094684E-1	1.663080603E-1
4.190622897E0	8.145887852E-1	-1.272126883E-1	1.351539344E-1
4.200622897E0	7.328855991E-1	-1.291979998E-1	9.437867999E-2
4.210622897E0	6.522513628E-1	-1.240056455E-1	5.497787148E-2
4.220622897E0	5.681046844E-1	-1.151480973E-1	1.664607786E-2
4.230622897E0	4.876231849E-1	-9.773843735E-2	-1.802052557E-2
4.240622897E0	4.022547603E-1	-8.643743396E-2	-5.375614017E-2
4.250622897E0	3.364340365E-1	-7.391469181E-2	-8.368854225E-2
4.260622897E0	2.522873580E-1	-5.772676691E-2	-1.171334088E-1
4.270622897E0	1.595885456E-1	-3.543018550E-2	-1.504255682E-1
4.280622897E0	6.582073122E-2	-1.435533352E-2	-1.837177277E-1
4.290622897E0	-2.809980139E-2	6.872233935E-3	-2.182316035E-1
4.300622897E0	-1.230893433E-1	2.794708498E-2	-2.515237629E-1
4.310622897E0	-2.011273801E-1	3.680463135E-2	-2.813034356E-1
4.320622897E0	-2.901609838E-1	4.688390717E-2	-3.184134960E-1
4.330622897E0	-3.779728711E-1	5.100724846E-2	-3.504839242E-1
4.340622897E0	-4.645630121E-1	4.398229718E-2	-3.837760985E-1
4.350622897E0	-5.500841737E-1	3.833179548E-2	-4.159992337E-1
4.360622897E0	-6.366742849E-1	3.497203439E-2	-4.517348409E-1
4.370622897E0	-7.073819637E-1	3.772092983E-2	-4.804455042E-1
4.380622897E0	-7.951938510E-1	4.550946131E-2	-5.174028873E-1
4.390622897E0	-8.794932365E-1	4.703662544E-2	-5.532912016E-1
4.400622897E0	-9.624181986E-1	4.123340547E-2	-5.891795158E-1
4.410622897E0	-1.042899728E0	3.558290005E-2	-6.226243973E-1
4.420622897E0	-1.124755621E0	2.855795063E-2	-6.583600044E-1
4.430622897E0	-1.187063932E0	2.031126991E-2	-6.870706677E-1
4.440622897E0	-1.268767118E0	4.886921961E-3	-7.180721164E-1
4.450622897E0	-1.342070937E0	-8.246680722E-3	-7.516697049E-1
4.460622897E0	-1.418887258E0	-2.000583708E-2	-7.802276611E-1
4.470622897E0	-1.489747643E0	-3.069597855E-2	-8.087855577E-1
4.480622897E0	-1.559233546E0	-4.856378585E-2	-8.374962807E-1
4.490622897E0	-1.615433097E0	-6.902777404E-2	-8.564330935E-1
4.500622897E0	-1.681406617E0	-9.926560521E-2	-8.790351152E-1
4.510622897E0	-1.749670744E0	-1.330159009E-1	-8.967501521E-1
4.520622897E0	-1.810757279E0	-1.669189334E-1	-9.132435322E-1
4.530622897E0	-1.871843815E0	-2.067778856E-1	-9.285151958E-1
4.540622897E0	-1.933999419E0	-2.515237629E-1	-9.388998747E-1
4.550622897E0	-1.981646895E0	-2.903137207E-1	-9.457721114E-1
4.560622897E0	-2.037693739E0	-3.352122903E-1	-9.502009153E-1
4.570622897E0	-2.092518806E0	-3.750712574E-1	-9.508117437E-1
4.580622897E0	-2.143678904E0	-4.199698567E-1	-9.479101300E-1
4.590622897E0	-2.189951897E0	-4.624249935E-1	-9.427177906E-1
4.600622897E0	-2.231490850E0	-5.036584139E-1	-9.349292517E-1
4.610622897E0	-2.261881351E0	-5.338962078E-1	-9.272934198E-1
4.620622897E0	-2.288606644E0	-5.800165534E-1	-9.149234295E-1
4.630622897E0	-2.308001518E0	-6.201809645E-1	-8.976664543E-1
4.640622897E0	-2.311666727E0	-6.493497491E-1	-8.744536042E-1
4.650622897E0	-2.295631647E0	-6.641632318E-1	-8.440630436E-1
4.660622897E0	-2.271197081E0	-6.971499324E-1	-8.136724830E-1
4.670622897E0	-2.247831345E0	-7.179193497E-1	-7.858781219E-1
4.680622897E0	-2.212401152E0	-7.302893996E-1	-7.544185519E-1
4.690622897E0	-2.171931267E0	-7.463245988E-1	-7.157813311E-1
4.700622897E0	-2.116953611E0	-7.684684992E-1	-6.724098921E-1
4.710622897E0	-2.049758434E0	-7.577783465E-1	-6.253733039E-1
4.720622897E0	-1.978897929E0	-7.593054771E-1	-5.833762884E-1
4.730622897E0	-1.923920035E0	-7.632761002E-1	-5.471825600E-1
4.740622897E0	-1.859015703E0	-7.525860071E-1	-5.015203953E-1
4.750622897E0	-1.789224267E0	-7.394523621E-1	-4.544837475E-1
4.760622897E0	-1.720807433E0	-7.250970602E-1	-4.063780904E-1
4.770622897E0	-1.651015997E0	-7.145596147E-1	-3.581197560E-1
4.780622897E0	-1.572825313E0	-6.977608204E-1	-3.112358451E-1
4.790622897E0	-1.510364294E0	-6.762278080E-1	-2.751947939E-1
4.800622897E0	-1.430951834E0	-6.520986557E-1	-2.283108830E-1
4.810622897E0	-1.350164890E0	-6.293439269E-1	-1.828014255E-1
4.820622897E0	-1.268308997E0	-5.980370641E-1	-1.371392459E-1
4.830622897E0	-1.183856845E0	-5.583308339E-1	-9.147707373E-2
4.840622897E0	-1.100779176E0	-5.196936131E-1	-5.329799280E-2
4.850622897E0	-1.032362223E0	-4.883867502E-1	-1.847867295E-2
4.860622897E0	-9.480628371E-1	-4.485278130E-1	1.847867295E-2
4.870622897E0	-8.625417352E-1	-4.086688459E-1	5.803219974E-2
4.880622897E0	-7.780895829E-1	-3.665191531E-1	9.636399150E-2
4.890622897E0	-6.730207801E-1	-2.646573782E-1	1.282816976E-1
4.900622897E0	-5.852088928E-1	-2.504547536E-1	1.627955884E-1
4.910622897E0	-5.241223574E-1	-2.493857294E-1	1.892155111E-1
4.920622897E0	-4.495968223E-1	-2.168571651E-1	2.202169150E-1
4.930622897E0	-3.712533414E-1	-1.417207420E-1	2.487748712E-1
4.940622897E0	-2.955060601E-1	-8.613199741E-2	2.785545588E-1
4.950622897E0	-2.075414658E-1	-2.321287990E-2	3.034473062E-1
4.960622897E0	-1.111774743E-1	4.825835302E-2	3.292563558E-1
4.970622897E0	-3.176499158E-2	8.078692853E-2	3.481931984E-1
4.980622897E0	6.933320314E-2	1.229366288E-1	3.703370690E-1
4.990622897E0	1.718058437E-1	1.760819107E-1	3.926336467E-1
5.000622897E0	2.730567753E-1	2.208277881E-1	4.147774875E-1
5.010622897E0	3.694207668E-1	2.666426897E-1	4.370740950E-1
5.020622897E0	4.634940028E-1	3.149010241E-1	4.583016634E-1
5.030622897E0	5.354233980E-1	3.316998184E-1	4.746423066E-1
5.040622897E0	6.133087277E-1	3.446807265E-1	4.934264123E-1
5.050622897E0	6.962336898E-1	3.784310222E-1	5.085453391E-1
5.060622897E0	7.803803682E-1	4.048509300E-1	5.261076689E-1
5.070622897E0	8.657487631E-1	4.227187634E-1	5.412266254E-1
5.080622897E0	9.582948685E-1	4.479169548E-1	5.537493229E-1
5.090622897E0	1.032667756E0	4.708243906E-1	5.639813542E-1
5.100622897E0	1.120326877E0	4.874704778E-1	5.803219676E-1
5.110622897E0	1.206764340E0	5.004513264E-1	5.904012322E-1
5.120622897E0	1.288314819E0	5.074763298E-1	6.018549800E-1
5.130622897E0	1.370018005E0	5.167919993E-1	6.096435189E-1
5.140622897E0	1.452790260E0	5.262604356E-1	6.174320579E-1
5.150622897E0	1.535409808E0	5.320636034E-1	6.239988208E-1
5.160622897E0	1.602452278E0	5.378668308E-1	6.307183504E-1
5.170622897E0	1.684002757E0	5.349652171E-1	6.360634565E-1
5.180622897E0	1.760513663E0	5.285511613E-1	6.389650702E-1
5.190622897E0	1.839620709E0	5.196936131E-1	6.406449080E-1
5.200622897E0	1.907579422E0	5.109887719E-1	6.375905871E-1
5.210622897E0	1.975690961E0	4.960225821E-1	6.357579827E-1
5.220622897E0	2.024254799E0	4.799873531E-1	6.340781450E-1
5.230622897E0	2.081370592E0	4.590652287E-1	6.287330389E-1
5.240622897E0	2.137112141E0	4.369213581E-1	6.195700765E-1
5.250622897E0	2.189188242E0	4.221078753E-1	6.068946123E-1
5.260622897E0	2.238973856E0	4.097378552E-1	5.954409242E-1
5.270622897E0	2.286163092E0	3.839288056E-1	5.804746747E-1
5.280622897E0	2.316401005E0	3.460551500E-1	5.679519773E-1
5.290622897E0	2.331978083E0	3.083342314E-1	5.494732857E-1
5.300622897E0	2.330603600E0	2.948952019E-1	5.323690772E-1
5.310622897E0	2.314415693E0	2.706133127E-1	5.032002330E-1
5.320622897E0	2.300823927E0	2.561052442E-1	4.715879560E-1
5.330622897E0	2.290744781E0	2.452623993E-1	4.411974251E-1
5.340622897E0	2.277305603E0	2.415972054E-1	4.254676402E-1
5.350622897E0	2.249053001E0	2.380847335E-1	4.001167417E-1
5.360622897E0	2.198962212E0	2.249511331E-1	3.712533414E-1
5.370622897E0	2.135432243E0	2.093740702E-1	3.376557529E-1
5.380622897E0	2.074345589E0	2.035708427E-1	3.065016270E-1
5.390622897E0	2.019367695E0	1.831068546E-1	2.802344263E-1
5.400622897E0	1.974163771E0	1.638645977E-1	2.635883391E-1
5.410622897E0	1.919338584E0	1.640173197E-1	2.432770878E-1
5.420622897E0	1.855808616E0	1.631010175E-1	2.194533348E-1
5.430622897E0	1.792431355E0	1.463022232E-1	1.980730593E-1
5.440622897E0	1.724014401E0	1.320996135E-1	1.754710376E-1
5.450622897E0	1.660637140E0	1.359175146E-1	1.565342247E-1
5.460622897E0	1.608255506E0	1.288925707E-1	1.424843222E-1
5.470622897E0	1.544878244E0	1.157589629E-1	1.284344196E-1
5.480622897E0	1.476613998E0	1.014036313E-1	1.168279797E-1
5.490622897E0	1.401172161E0	8.720101416E-2	1.041525230E-1
5.500622897E0	1.321912408E0	8.139779419E-2	8.888089657E-2
5.510622897E0	1.241583586E0	8.170322329E-2	7.498370856E-2
5.520622897E0	1.181871533E0	8.078692853E-2	6.704246253E-2
5.530622897E0	1.102764487E0	6.154467165E-2	5.436700583E-2
5.540622897E0	1.023504734E0	4.123340547E-2	4.413501546E-2
5.550622897E0	9.395107627E-1	3.069597855E-2	3.390302137E-2
5.560622897E0	8.591819406E-1	2.855795063E-2	2.367102914E-2
5.570622897E0	7.715228200E-1	1.435533352E-2	1.359175146E-2
5.580622897E0	6.995934248E-1	2.443460980E-3	5.650503561E-3
5.590622897E0	6.094908118E-1	-1.298088674E-2	-5.650503561E-3
5.600622897E0	5.218316317E-1	-2.244929783E-2	-1.710422710E-2
5.610622897E0	4.305072725E-1	-2.809980139E-2	-2.840523422E-2
5.620622897E0	3.393356502E-1	-2.764165215E-2	-4.108068720E-2
5.630622897E0	2.455678284E-1	-2.000583708E-2	-5.115996301E-2
5.640622897E0	1.701259762E-1	-2.336559631E-2	-5.772676691E-2
5.650622897E0	7.269296050E-2	-2.412917651E-2	-6.902777404E-2
5.660622897E0	-2.580905706E-2	-2.122756653E-2	-8.032877743E-2
5.670622897E0	-1.244637966E-1	-1.970040426E-2	-9.285151958E-2
5.680622897E0	-2.241875380E-1	-1.802052557E-2	-1.053742543E-1
5.690622897E0	-3.132211566E-1	-3.222314268E-2	-1.178969890E-1
5.700622897E0	-3.862195611E-1	-4.046982154E-2	-1.282816976E-1
5.710622897E0	-4.763221741E-1	-5.589416996E-2	-1.408044398E-1
5.720622897E0	-5.676465034E-1	-6.520986557E-2	-1.534798890E-1
5.730622897E0	-6.589708924E-1	-7.941248268E-2	-1.684460938E-1
5.740622897E0	-7.480044961E-1	-8.765916526E-2	-1.846340150E-1
5.750622897E0	-8.368853927E-1	-9.330966324E-2	-2.021963894E-1
5.760622897E0	-9.014843702E-1	-9.422596544E-2	-2.174680233E-1
5.770622897E0	-9.891435504E-1	-9.880745411E-2	-2.348776907E-1
5.780622897E0	-1.073290229E0	-1.056796908E-1	-2.536617815E-1
5.790622897E0	-1.156062484E0	-1.163698286E-1	-2.700024247E-1
5.800622897E0	-1.237765670E0	-1.281289905E-1	-2.900082767E-1
5.810622897E0	-1.317025423E0	-1.388191283E-1	-3.087923825E-1
5.820622897E0	-1.377959251E0	-1.421788931E-1	-3.228422701E-1
5.830622897E0	-1.448514223E0	-1.455386430E-1	-3.393356502E-1
5.840622897E0	-1.519221902E0	-1.501201391E-1	-3.568980098E-1
5.850622897E0	-1.587486029E0	-1.571450830E-1	-3.733913898E-1
5.860622897E0	-1.658193707E0	-1.713477075E-1	-3.921754956E-1
5.870622897E0	-1.721570969E0	-1.832595766E-1	-4.051563740E-1
5.880622897E0	-1.770287514E0	-1.965458989E-1	-4.144720733E-1
5.890622897E0	-1.831221342E0	-2.121229619E-1	-4.260784984E-1
5.900622897E0	-1.889864326E0	-2.325869352E-1	-4.376849532E-1
5.910622897E0	-1.943467736E0	-2.530509233E-1	-4.506658316E-1
5.920622897E0	-2.000736475E0	-2.794708610E-1	-4.610505402E-1
5.930622897E0	-2.050827265E0	-2.988658249E-1	-4.703662395E-1
5.940622897E0	-2.089770079E0	-3.156646192E-1	-4.761694670E-1
5.950622897E0	-2.134974003E0	-3.349068761E-1	-4.842634201E-1
5.960622897E0	-2.176360130E0	-3.579670191E-1	-4.899139404E-1
5.970622897E0	-2.218967915E0	-3.796527386E-1	-4.944954216E-1
5.980622897E0	-2.251954794E0	-3.990477324E-1	-5.015203953E-1
5.990622897E0	-2.275167704E0	-4.233296216E-1	-5.036584139E-1
6.000622897E0	-2.288606644E0	-4.476115108E-1	-5.083925724E-1
6.010622897E0	-2.291050196E0	-4.621195495E-1	-5.071708560E-1
6.020622897E0	-2.277611017E0	-4.598288238E-1	-4.987714589E-1
6.030622897E0	-2.247220516E0	-4.903720617E-1	-4.929682612E-1
6.040622897E0	-2.218051672E0	-4.978551865E-1	-4.883867502E-1
6.050622897E0	-2.187661171E0	-4.978551865E-1	-4.850270152E-1
6.060622897E0	-2.156048775E0	-5.114469528E-1	-4.743368626E-1
6.070622897E0	-2.110997677E0	-5.458080769E-1	-4.612032473E-1
6.080622897E0	-2.054950714E0	-5.374087095E-1	-4.447098970E-1
6.090622897E0	-1.980577826E0	-5.232060552E-1	-4.332561791E-1
6.100622897E0	-1.901470780E0	-5.357288122E-1	-4.169155359E-1
6.110622897E0	-1.831984878E0	-5.335907936E-1	-3.992004395E-1
6.120622897E0	-1.777159691E0	-5.251913667E-1	-3.862195611E-1
6.130622897E0	-1.717447639E0	-5.145012736E-1	-3.660610020E-1
6.140622897E0	-1.649183393E0	-5.209153295E-1	-3.471241891E-1
6.150622897E0	-1.572367191E0	-5.138903856E-1	-3.258966208E-1
6.160622897E0	-1.494329095E0	-5.009095073E-1	-3.022255898E-1
6.170622897E0	-1.412625909E0	-4.902193546E-1	-2.785545588E-1
6.180622897E0	-1.350470304E0	-4.831944108E-1	-2.608394623E-1
6.190622897E0	-1.268767118E0	-4.653266072E-1	-2.371684313E-1
6.200622897E0	-1.188285589E0	-4.450153410E-1	-2.147191316E-1
6.210622897E0	-1.100321054E0	-4.210388660E-1	-1.899790913E-1
6.220622897E0	-1.018617749E0	-4.017966092E-1	-1.675297916E-1
6.230622897E0	-9.320276380E-1	-3.778201640E-1	-1.438587606E-1
6.240622897E0	-8.662069440E-1	-3.575088978E-1	-1.250746548E-1
6.250622897E0	-7.759515643E-1	-3.103195429E-1	-1.038470939E-1
6.260622897E0	-6.734789610E-1	-2.512183189E-1	-8.048149943E-2
6.270622897E0	-5.929974318E-1	-2.770273983E-1	-5.803219974E-2
6.280622897E0	-5.236642361E-1	-2.871066630E-1	-3.787364438E-2
6.290622897E0	-4.442517459E-1	-2.254092693E-1	-1.664607786E-2
6.300622897E0	-3.685044646E-1	-1.745547503E-1	5.803219974E-3
6.310622897E0	-3.098613918E-1	-1.430951804E-1	2.244929783E-2
6.320622897E0	-2.196060568E-1	-8.261952549E-2	3.863722831E-2
6.330622897E0	-1.232420653E-1	-3.436116874E-2	5.849034712E-2
6.340622897E0	-2.947424725E-2	-1.527163107E-2	7.834346592E-2
6.350622897E0	6.811147183E-2	2.932153270E-2	9.575312585E-2
6.360622897E0	1.669189334E-1	7.895433158E-2	1.168279797E-1
6.370622897E0	2.412917763E-1	1.065959856E-1	1.307251602E-1
6.380622897E0	3.339905739E-1	1.560760736E-1	1.493565589E-1
6.390622897E0	4.291328490E-1	1.959350258E-1	1.693623960E-1
6.400622897E0	5.120577812E-1	2.040289938E-1	1.892155111E-1
6.410622897E0	5.913175344E-1	2.304489166E-1	2.079996169E-1
6.420622897E0	6.693555713E-1	2.703078687E-1	2.280054539E-1
6.430622897E0	7.351763248E-1	2.871066630E-1	2.444988191E-1
6.440622897E0	8.254316449E-1	3.123048544E-1	2.620611787E-1
6.450622897E0	9.181304574E-1	3.483459055E-1	2.819143236E-1
6.460622897E0	1.008385777E0	3.784310222E-1	3.005456924E-1
6.470622897E0	1.092379808E0	4.011857510E-1	3.168863356E-1
6.480622897E0	1.176526427E0	4.155410826E-1	3.368921876E-1
6.490622897E0	1.237460256E0	4.311181605E-1	3.521638215E-1
6.500622897E0	1.317941785E0	4.563163519E-1	3.709479272E-1
6.510622897E0	1.397201538E0	4.741841555E-1	3.897320330E-1
6.520622897E0	1.481348276E0	4.909829497E-1	4.048509300E-1
6.530622897E0	1.561676979E0	5.015203953E-1	4.224133193E-1
6.540622897E0	1.639715075E0	5.097670555E-1	4.363104999E-1
6.550622897E0	1.704313993E0	5.143485069E-1	4.479169548E-1
6.560622897E0	1.774868965E0	5.201517344E-1	4.631885588E-1
6.570622897E0	1.846798301E0	5.198463202E-1	4.783074856E-1
6.580622897E0	1.906510472E0	5.134322643E-1	4.899139404E-1
6.590622897E0	1.968513250E0	5.083925724E-1	5.015203953E-1
6.600622897E0	2.024560213E0	4.946481287E-1	5.096143484E-1
6.610622897E0	2.070680380E0	4.871650338E-1	5.115996599E-1
6.620622897E0	2.126574516E0	4.723515511E-1	5.172501206E-1
6.630622897E0	2.178956270E0	4.673119187E-1	5.227479339E-1
6.640622897E0	2.223855019E0	4.488332272E-1	5.248859525E-1
6.650622897E0	2.259132385E0	4.109596014E-1	5.233588219E-1
6.660622897E0	2.275931120E0	3.743076921E-1	5.158756971E-1
6.670622897E0	2.275931120E0	3.681990206E-1	5.134322643E-1
6.680622897E0	2.261117697E0	3.451388776E-1	5.025894046E-1
6.690622897E0	2.246304274E0	3.257438838E-1	4.868595898E-1
6.700622897E0	2.236530304E0	3.196352422E-1	4.721988440E-1
6.710622897E0	2.224313021E0	3.136793077E-1	4.637994468E-1
6.720622897E0	2.192548037E0	3.003929853E-1	4.482223690E-1
6.730622897E0	2.157117844E0	2.968805134E-1	4.326453209E-1
6.740622897E0	2.098474741E0	2.788599730E-1	4.100432992E-1
6.750622897E0	2.039831877E0	2.693915665E-1	3.874412775E-1
6.760622897E0	1.981341481E0	2.477058619E-1	3.720169365E-1
6.770622897E0	1.927737951E0	2.296853364E-1	3.579670191E-1
6.780622897E0	1.867873192E0	2.177734673E-1	3.426954150E-1
6.790622897E0	1.819156647E0	2.144137025E-1	3.260493279E-1
6.800622897E0	1.754557729E0	2.037235647E-1	3.083342314E-1
6.810622897E0	1.692249417E0	1.747074574E-1	2.918408811E-1
6.820622897E0	1.631315589E0	1.774563491E-1	2.751947939E-1
6.830622897E0	1.564425945E0	1.692096740E-1	2.625193298E-1
6.840622897E0	1.494939923E0	1.426370293E-1	2.521346211E-1
6.850622897E0	1.434006214E0	1.211040318E-1	2.417499274E-1
6.860622897E0	1.357189894E0	1.079704314E-1	2.277000248E-1
6.870622897E0	1.280373573E0	1.070541367E-1	2.113593817E-1
6.880622897E0	1.209818602E0	1.036943719E-1	1.999056488E-1
6.890622897E0	1.137889266E0	8.933904022E-2	1.895209402E-1
6.900622897E0	1.063669086E0	7.024950534E-2	1.805106848E-1
6.910622897E0	1.003957033E0	5.467243865E-2	1.724167168E-1
6.920622897E0	9.222537875E-1	4.046982154E-2	1.597412676E-1
6.930622897E0	8.321511745E-1	2.244929783E-2	1.472185254E-1
6.940622897E0	7.408268452E-1	1.069014147E-2	1.346957833E-1
6.950622897E0	6.507241726E-1	-2.290744567E-3	1.220203340E-1
6.960622897E0	5.655084848E-1	-1.282817032E-2	1.094975919E-1
6.970622897E0	4.996877611E-1	-2.107485011E-2	1.003346145E-1
6.980622897E0	4.156937897E-1	-2.443460934E-2	8.765916526E-2
6.990622897E0	3.316998184E-1	-2.886338346E-2	7.620543987E-2
7.000622897E0	2.440406680E-1	-2.977968007E-2	6.352998316E-2
7.010622897E0	1.514945775E-1	-3.543018550E-2	5.222897977E-2
7.020622897E0	5.406157300E-2	-3.512475267E-2	3.726277873E-2
7.030622897E0	-2.748893574E-2	-3.344487399E-2	2.703078650E-2
7.040622897E0	-1.237002090E-1	-2.580905706E-2	9.621127509E-3
7.050622897E0	-2.160935849E-1	-3.145955876E-2	-2.901609987E-3
7.060622897E0	-3.039054573E-1	-3.604105115E-2	-2.046398632E-2
7.070622897E0	-3.891211748E-1	-4.291328415E-2	-3.665191308E-2
7.080622897E0	-4.743368626E-1	-4.749477282E-2	-5.299255997E-2
7.090622897E0	-5.474879742E-1	-6.169738993E-2	-6.688974798E-2
7.100622897E0	-6.377432942E-1	-7.223481685E-2	-8.689557761E-2
7.110622897E0	-7.266241908E-1	-7.681630552E-2	-1.079704314E-1
7.120622897E0	-8.107708693E-1	-7.651086897E-2	-1.328631938E-1
7.130622897E0	-8.912523985E-1	-7.605272532E-2	-1.577559561E-1
7.140622897E0	-9.703594446E-1	-7.696902007E-2	-1.802052408E-1
7.150622897E0	-1.032667756E0	-8.155050874E-2	-2.003637999E-1
7.160622897E0	-1.114370942E0	-8.979719132E-2	-2.264782935E-1
7.170622897E0	-1.197295904E0	-9.544769675E-2	-2.525927722E-1
7.180622897E0	-1.272890449E0	-1.036943719E-1	-2.799290121E-1
7.190622897E0	-1.349706769E0	-1.046106741E-1	-3.060434759E-1
7.200622897E0	-1.420414448E0	-1.079704314E-1	-3.321579695E-1
7.210622897E0	-1.470505357E0	-1.088867337E-1	-3.512475193E-1
7.220622897E0	-1.536326051E0	-1.159116775E-1	-3.787364662E-1
7.230622897E0	-1.598634362E0	-1.241583601E-1	-4.025602043E-1
7.240622897E0	-1.660789847E0	-1.372919679E-1	-4.251621962E-1
7.250622897E0	-1.723098159E0	-1.504255682E-1	-4.489859641E-1
7.260622897E0	-1.782810211E0	-1.660026312E-1	-4.691445231E-1
7.270622897E0	-1.829236031E0	-1.828014255E-1	-4.882340431E-1
7.280622897E0	-1.885435581E0	-2.032654136E-1	-5.073235631E-1
7.290622897E0	-1.937970042E0	-2.261728644E-1	-5.264131427E-1
7.300622897E0	-1.988060951E0	-2.490803003E-1	-5.441282392E-1
7.310622897E0	-2.031890631E0	-2.696970105E-1	-5.609270334E-1
7.320622897E0	-2.075872898E0	-2.926044464E-1	-5.739079118E-1
7.330622897E0	-2.107637882E0	-3.118467033E-1	-5.845980644E-1
7.340622897E0	-2.146733284E0	-3.385720551E-1	-5.926920176E-1
7.350622897E0	-2.180941582E0	-3.639229834E-1	-6.070473194E-1
7.360622897E0	-2.207819700E0	-3.882048726E-1	-6.177374721E-1
7.370622897E0	-2.222633123E0	-4.271475375E-1	-6.238461137E-1
7.380622897E0	-2.220189810E0	-4.489859641E-1	-6.250678897E-1
7.390622897E0	-2.208125114E0	-4.491386712E-1	-6.201809645E-1
7.400622897E0	-2.189799070E0	-4.662429094E-1	-6.155994534E-1
7.410622897E0	-2.160630465E0	-4.906775057E-1	-6.096435189E-1
7.420622897E0	-2.135126829E0	-4.980078936E-1	-6.050620079E-1
7.430622897E0	-2.098627567E0	-5.128213763E-1	-5.931501389E-1
7.440622897E0	-2.051132679E0	-5.422956347E-1	-5.752823353E-1
7.450622897E0	-1.990198970E0	-5.450445414E-1	-5.539020896E-1
7.460622897E0	-1.932777643E0	-5.317581892E-1	-5.374087095E-1
7.470622897E0	-1.858557463E0	-5.418374538E-1	-5.172501206E-1
7.480622897E0	-1.790293336E0	-5.458080769E-1	-4.960225821E-1
7.490622897E0	-1.726763368E0	-5.412266254E-1	-4.709770977E-1
7.500622897E0	-1.662164330E0	-5.317581892E-1	-4.422664344E-1
7.510622897E0	-1.593747377E0	-5.308418870E-1	-4.147774875E-1
7.520622897E0	-1.536478758E0	-5.287038684E-1	-3.921754956E-1
7.530622897E0	-1.458288074E0	-5.155702829E-1	-3.599523604E-1
7.540622897E0	-1.380249977E0	-5.038111210E-1	-3.326161206E-1
7.550622897E0	-1.302059293E0	-4.906775057E-1	-3.003929853E-1
7.560622897E0	-1.224021196E0	-4.789183438E-1	-2.669481039E-1
7.570622897E0	-1.148273945E0	-4.586070776E-1	-2.347249687E-1
7.580622897E0	-1.083522201E0	-4.344778955E-1	-2.096794993E-1
7.590622897E0	-9.993755221E-1	-4.019493461E-1	-1.798998117E-1
7.600622897E0	-9.175195694E-1	-3.791945875E-1	-1.513418704E-1
7.610622897E0	-8.345946670E-1	-3.552181423E-1	-1.204931661E-1
7.620622897E0	-7.527387142E-1	-3.263547719E-1	-9.071348608E-2
7.630622897E0	-6.574437022E-1	-2.622139156E-1	-6.108652428E-2
7.640622897E0	-5.855143666E-1	-2.296853364E-1	-3.604105115E-2
7.650622897E0	-5.123631954E-1	-2.493857294E-1	-9.926560335E-3
7.660622897E0	-4.439463317E-1	-2.374738604E-1	1.511891466E-2
7.670622897E0	-3.657555580E-1	-1.721112877E-1	4.245513305E-2
7.680622897E0	-2.912299931E-1	-1.212567538E-1	6.856962293E-2
7.690622897E0	-2.118175179E-1	-7.544185966E-2	9.590584040E-2
7.700622897E0	-1.337794960E-1	-2.336559631E-2	1.159116775E-1
7.710622897E0	-3.497203439E-2	2.122756653E-2	1.394299865E-1
7.720622897E0	5.772676691E-2	4.886921868E-2	1.605048478E-1
7.730622897E0	1.518000066E-1	9.590584040E-2	1.852448881E-1
7.740622897E0	2.371684313E-1	1.369865239E-1	2.089159191E-1
7.750622897E0	3.225368559E-1	1.756237596E-1	2.338086665E-1
7.760622897E0	3.921754956E-1	2.093740702E-1	2.525927722E-1
7.770622897E0	4.812090993E-1	2.333505303E-1	2.762638032E-1
7.780622897E0	5.616905689E-1	2.512183189E-1	2.987131178E-1
7.790622897E0	6.409503818E-1	2.874121070E-1	3.187189400E-1
7.800622897E0	7.238753438E-1	3.126102984E-1	3.422372639E-1
7.810622897E0	8.055785298E-1	3.342960179E-1	3.622430861E-1
7.820622897E0	8.762862086E-1	3.582724631E-1	3.775147200E-1
7.830622897E0	9.616546035E-1	3.846924007E-1	3.999640048E-1
7.840622897E0	1.045801282E0	4.025602043E-1	4.198171496E-1
7.850622897E0	1.127504468E0	4.193589985E-1	4.386012554E-1
7.860622897E0	1.204320788E0	4.311181605E-1	4.573853612E-1
7.870622897E0	1.281137109E0	4.442517459E-1	4.726569951E-1
7.880622897E0	1.343292713E0	4.537201524E-1	4.854851663E-1
7.890622897E0	1.421177983E0	4.619668424E-1	5.006040931E-1
7.900622897E0	1.500437737E0	4.749477208E-1	5.132794976E-1
7.910622897E0	1.577101350E0	4.819726646E-1	5.271766782E-1
7.920622897E0	1.652543187E0	4.804455042E-1	5.400048494E-1
7.930622897E0	1.725694299E0	4.776966274E-1	5.490151644E-1
7.940622897E0	1.776701570E0	4.725042582E-1	5.534439087E-1
7.950622897E0	1.842369556E0	4.625777006E-1	5.589417219E-1
7.960622897E0	1.903303385E0	4.512766898E-1	5.656611919E-1
7.970622897E0	1.959197521E0	4.413501322E-1	5.676465034E-1
7.980622897E0	2.017535210E0	4.240931869E-1	5.682573915E-1
7.990622897E0	2.069764137E0	4.129449129E-1	5.641340613E-1
8.000622897E0	2.112219334E0	4.091269970E-1	5.587889552E-1
8.010622897E0	2.160783052E0	3.869831264E-1	5.522221923E-1
8.020622897E0	2.195755005E0	3.442225754E-1	5.445863605E-1
8.030622897E0	2.213775635E0	3.063489199E-1	5.285511613E-1
8.040622897E0	2.213623047E0	2.918408811E-1	5.138903856E-1
8.050622897E0	2.201252937E0	2.771801054E-1	4.981606007E-1
8.060622897E0	2.193769693E0	2.602286041E-1	4.763221741E-1
8.070622897E0	2.188730240E0	2.467895597E-1	4.506658316E-1
8.080622897E0	2.180025339E0	2.493857294E-1	4.288274050E-1
8.090622897E0	2.156812429E0	2.481640130E-1	4.094324410E-1
8.100622897E0	2.115120888E0	2.252565622E-1	3.817907870E-1
8.110622897E0	2.056477785E0	2.096794993E-1	3.543018401E-1
8.120622897E0	2.003943443E0	2.075414658E-1	3.278819323E-1
8.130622897E0	1.950187325E0	2.003637999E-1	3.003929853E-1
8.140622897E0	1.901318073E0	1.774563491E-1	2.739730477E-1
8.150622897E0	1.852448821E0	1.728748679E-1	2.548835278E-1
8.160622897E0	1.793958545E0	1.744020283E-1	2.322815061E-1
8.170622897E0	1.731650233E0	1.588249654E-1	2.084577680E-1
8.180622897E0	1.678046823E0	1.479821056E-1	1.893682331E-1
8.190622897E0	1.613447785E0	1.531744599E-1	1.655444801E-1
8.200622897E0	1.548848867E0	1.449277848E-1	1.478293836E-1
8.210622897E0	1.482875347E0	1.209513173E-1	1.301143020E-1
8.220622897E0	1.417054653E0	1.127046347E-1	1.174388453E-1
8.230622897E0	1.350164890E0	1.201877370E-1	1.021672115E-1
8.240622897E0	1.291674614E0	1.156062484E-1	9.040805697E-2
8.250622897E0	1.220966935E0	1.073595658E-1	7.773260027E-2
8.260622897E0	1.145525098E0	9.315694869E-2	6.368270516E-2
8.270622897E0	1.068708777E0	8.246681094E-2	5.222897977E-2
8.280622897E0	9.883799553E-1	7.177666575E-2	3.955352306E-2
8.290622897E0	9.042332768E-1	6.001751125E-2	2.687807009E-2
8.300622897E0	8.410087228E-1	5.299255997E-2	2.138028294E-2
8.310622897E0	7.570147514E-1	3.878994286E-2	1.007927675E-2
8.320622897E0	6.716463566E-1	2.321287990E-2	-1.527163113E-4
8.330622897E0	5.864306092E-1	1.878410578E-2	-9.162978269E-3
8.340622897E0	5.012149215E-1	1.420261711E-2	-1.939497143E-2
8.350622897E0	4.149302244E-1	7.330383174E-3	-2.703078650E-2
8.360622897E0	3.478877544E-1	1.527163084E-3	-3.497203439E-2
8.370622897E0	2.602286041E-1	-3.054326167E-3	-4.520402849E-2
8.380622897E0	1.701259762E-1	-8.704829961E-3	-5.406157300E-2
8.390622897E0	7.528914511E-2	-9.468411095E-3	-6.291911751E-2
8.400622897E0	-2.092213556E-2	-1.404990070E-2	-7.055493444E-2
8.410622897E0	-1.169806942E-1	-1.970040426E-2	-8.078692853E-2
8.420622897E0	-1.913535446E-1	-2.794708498E-2	-8.979719132E-2
8.430622897E0	-2.826778889E-1	-3.359758854E-2	-1.023199260E-1
8.440622897E0	-3.678936064E-1	-4.413501546E-2	-1.125519201E-1
8.450622897E0	-4.543310404E-1	-5.849034712E-2	-1.215621829E-1
8.460622897E0	-5.383250117E-1	-7.269296050E-2	-1.328631938E-1
8.470622897E0	-6.284276247E-1	-8.445212245E-2	-1.467603743E-1
8.480622897E0	-7.162395120E-1	-9.269879758E-2	-1.617265791E-1
8.490622897E0	-7.819074988E-1	-9.850201756E-2	-1.733330190E-1
8.500622897E0	-8.660541773E-1	-1.053742543E-1	-1.896736622E-1
8.510622897E0	-9.463829994E-1	-1.136209369E-1	-2.060143054E-1
8.520622897E0	-1.025642753E0	-1.217148975E-1	-2.235766798E-1
8.530622897E0	-1.105971575E0	-1.336267740E-1	-2.386955917E-1
8.540622897E0	-1.185231328E0	-1.417207420E-1	-2.562579811E-1
8.550622897E0	-1.244943380E0	-1.501201391E-1	-2.715296149E-1
8.560622897E0	-1.316872716E0	-1.545489132E-1	-2.880229652E-1
8.570622897E0	-1.390023828E0	-1.615738571E-1	-3.043636084E-1
8.580622897E0	-1.457066298E0	-1.685988009E-1	-3.208569586E-1
8.590622897E0	-1.521665335E0	-1.731802970E-1	-3.385720551E-1
8.600622897E0	-1.587486029E0	-1.826487035E-1	-3.526219726E-1
8.610622897E0	-1.634980798E0	-1.922698319E-1	-3.631593883E-1
8.620622897E0	-1.698358059E0	-2.066251636E-1	-3.772092760E-1
8.630622897E0	-1.755626678E0	-2.222022265E-1	-3.914119005E-1
8.640622897E0	-1.812895298E0	-2.377792895E-1	-4.017966092E-1
8.650622897E0	-1.865429759E0	-2.533563673E-1	-4.147774875E-1
8.660622897E0	-1.919033170E0	-2.713768780E-1	-4.239404798E-1
8.670622897E0	-1.952019930E0	-2.871066630E-1	-4.334088862E-1
8.680622897E0	-1.999514699E0	-3.039054573E-1	-4.427245855E-1
8.690622897E0	-2.042122602E0	-3.219259977E-1	-4.497495294E-1
8.700622897E0	-2.082439661E0	-3.413209617E-1	-4.554000497E-1
8.710622897E0	-2.116495371E0	-3.582724631E-1	-4.612032473E-1
8.720622897E0	-2.150703907E0	-3.775147200E-1	-4.682282209E-1
8.730622897E0	-2.167808056E0	-3.920227587E-1	-4.729624093E-1
8.740622897E0	-2.184912205E0	-4.187481403E-1	-4.752531648E-1
8.750622897E0	-2.177734613E0	-4.346306324E-1	-4.728097022E-1
8.760622897E0	-2.166586399E0	-4.311181605E-1	-4.668537676E-1
8.770622897E0	-2.143526077E0	-4.531092942E-1	-4.596760869E-1
8.780622897E0	-2.116800785E0	-4.592179358E-1	-4.526511431E-1
8.790622897E0	-2.093587875E0	-4.593706727E-1	-4.492913783E-1
8.800622897E0	-2.059532166E0	-4.741841555E-1	-4.386012554E-1
8.810622897E0	-2.015702486E0	-4.973970354E-1	-4.242459238E-1
8.820622897E0	-1.957212210E0	-4.915938079E-1	-4.040873647E-1
8.830622897E0	-1.884061098E0	-4.749477208E-1	-3.853032589E-1
8.840622897E0	-1.813353539E0	-4.836525619E-1	-3.700316250E-1
8.850622897E0	-1.757306576E0	-4.802927971E-1	-3.535382748E-1
8.860622897E0	-1.693929315E0	-4.708243906E-1	-3.321579695E-1
8.870622897E0	-1.634064555E0	-4.613559842E-1	-3.081815243E-1
8.880622897E0	-1.565800309E0	-4.592179358E-1	-2.857322097E-1
8.890622897E0	-1.497536182E0	-4.521929920E-1	-2.619084716E-1
8.900622897E0	-1.419498086E0	-4.392121136E-1	-2.370157093E-1
8.910622897E0	-1.358411551E0	-4.260784984E-1	-2.144137025E-1
8.920622897E0	-1.281595230E0	-4.129449129E-1	-1.895209402E-1
8.930622897E0	-1.205847979E0	-3.975205719E-1	-1.634064466E-1
8.940622897E0	-1.130253434E0	-3.843869567E-1	-1.383609772E-1
8.950622897E0	-1.053437114E0	-3.530801237E-1	-1.110247597E-1
8.960622897E0	-9.703594446E-1	-3.254384696E-1	-8.735372871E-2
8.970622897E0	-9.033169746E-1	-3.086396754E-1	-6.612616032E-2
8.980622897E0	-8.203920126E-1	-2.834414840E-1	-4.123340547E-2
8.990622897E0	-7.226535678E-1	-2.119702399E-1	-1.893682219E-2
9.000622897E0	-6.386595964E-1	-2.173153162E-1	5.955935922E-3
9.010622897E0	-5.728389025E-1	-2.382374406E-1	2.977968007E-2
9.020622897E0	-5.068654418E-1	-2.057088763E-1	5.100724846E-2
9.030622897E0	-4.470006526E-1	-1.522581577E-1	6.887505949E-2
9.040622897E0	-3.736968040E-1	-1.172861308E-1	9.010262042E-2
9.050622897E0	-2.932153046E-1	-7.864890248E-2	1.101084575E-1
9.060622897E0	-1.980730593E-1	-2.550362423E-2	1.287398487E-1
9.070622897E0	-1.065959856E-1	-6.414085161E-3	1.498146951E-1
9.080622897E0	-1.527163107E-2	1.634064503E-2	1.685988009E-1
9.090622897E0	5.558873713E-2	4.764748737E-2	1.837177277E-1
9.100622897E0	1.421788931E-1	8.750644326E-2	2.037235647E-1
9.110622897E0	2.251038402E-1	1.308778822E-1	2.200642079E-1
9.120622897E0	3.214678466E-1	1.670716405E-1	2.399173230E-1
9.130622897E0	4.066835344E-1	1.739438772E-1	2.585487068E-1
9.140622897E0	4.871650338E-1	2.017382532E-1	2.736676335E-1
9.150622897E0	5.468770862E-1	2.220495194E-1	2.854267955E-1
9.160622897E0	6.224716902E-1	2.364048511E-1	3.017674387E-1
9.170622897E0	7.029531598E-1	2.554943860E-1	3.181080818E-1
9.180622897E0	7.942775488E-1	2.868012190E-1	3.330742717E-1
9.190622897E0	8.796459436E-1	3.046690524E-1	3.457497358E-1
9.200622897E0	9.611964822E-1	3.165809214E-1	3.572034538E-1
9.210622897E0	1.027017236E0	3.260493279E-1	3.663664162E-1
9.220622897E0	1.103680730E0	3.353650272E-1	3.790418804E-1
9.230622897E0	1.179275393E0	3.533855379E-1	3.880521357E-1
9.240622897E0	1.255938888E0	3.628539443E-1	3.984368443E-1
9.250622897E0	1.332602501E0	3.697261810E-1	4.062253833E-1
9.260622897E0	1.412931323E0	3.779728711E-1	4.127921760E-1
9.270622897E0	1.476308584E0	3.837760985E-1	4.182899892E-1
9.280622897E0	1.551750422E0	3.871358633E-1	4.224133193E-1
9.290622897E0	1.623374343E0	3.819434941E-1	4.266893864E-1
9.300622897E0	1.695151091E0	3.840815127E-1	4.285219610E-1
9.310622897E0	1.759597301E0	3.813326359E-1	4.279111028E-1
9.320622897E0	1.822821856E0	3.787364662E-1	4.273002446E-1
9.330622897E0	1.869094968E0	3.700316250E-1	4.243986309E-1
9.340622897E0	1.928501606E0	3.636175394E-1	4.189008474E-1
9.350622897E0	1.986839175E0	3.512475193E-1	4.135557711E-1
9.360622897E0	2.043955088E0	3.448334336E-1	4.056145251E-1
9.370622897E0	2.099696636E0	3.446807265E-1	3.966042697E-1
9.380622897E0	2.143373489E0	3.225368559E-1	3.853032589E-1
9.390622897E0	2.166280985E0	2.919935882E-1	3.752239645E-1
9.400622897E0	2.183079720E0	2.603813112E-1	3.567453027E-1
9.410622897E0	2.181705236E0	2.616030276E-1	3.408628106E-1
9.420622897E0	2.169335127E0	2.506074607E-1	3.178026378E-1
9.430622897E0	2.161852121E0	2.409863323E-1	2.947424948E-1
9.440622897E0	2.159255981E0	2.336559594E-1	2.715296149E-1
9.450622897E0	2.151925564E0	2.360994220E-1	2.582432926E-1
9.460622897E0	2.127338171E0	2.386955917E-1	2.351831198E-1
9.470622897E0	2.085799456E0	2.364048511E-1	2.099849284E-1
9.480622897E0	2.032043219E0	2.257147133E-1	1.849394590E-1
9.490622897E0	1.974621892E0	2.199114859E-1	1.585195363E-1
9.500622897E0	1.923461914E0	2.139555514E-1	1.406517178E-1
9.510622897E0	1.884366512E0	2.128865421E-1	1.252273768E-1
9.520622897E0	1.830763102E0	2.058615834E-1	1.098030284E-1
9.530622897E0	1.769829273E0	2.037235647E-1	9.330966324E-2
9.540622897E0	1.707673788E0	2.040289938E-1	7.681630552E-2
9.550622897E0	1.645518303E0	1.957823038E-1	6.154467165E-2
9.560622897E0	1.584584475E0	1.934915632E-1	4.993823543E-2
9.570622897E0	1.533424497E0	1.913535446E-1	4.062253982E-2
9.580622897E0	1.467756510E0	1.806633919E-1	3.390302137E-2
9.590622897E0	1.394605398E0	1.626428664E-1	2.718350291E-2
9.600622897E0	1.322828650E0	1.605048478E-1	2.061670274E-2
9.610622897E0	1.251052022E0	1.608102769E-1	1.145372353E-2
9.620622897E0	1.179275393E0	1.562287807E-1	7.330383174E-3
9.630622897E0	1.108567715E0	1.432479024E-1	6.108652451E-4
9.640622897E0	1.049008369E0	1.360702366E-1	-1.221730490E-3
9.650622897E0	9.723447561E-1	1.230893433E-1	-1.832595794E-3
9.660622897E0	8.895725012E-1	1.027780771E-1	-3.359758761E-3
9.670622897E0	8.031350970E-1	8.475755155E-2	-6.261368748E-3
9.680622897E0	7.166976333E-1	6.933320314E-2	-9.162978269E-3
9.690622897E0	6.304129362E-1	6.123924255E-2	-1.328631863E-2
9.700622897E0	5.635231733E-1	5.543602258E-2	-1.374446787E-2
9.710622897E0	4.783074856E-1	4.474587739E-2	-1.420261711E-2
9.720622897E0	3.955352604E-1	3.054326214E-2	-1.588249579E-2
9.730622897E0	3.116939962E-1	1.985312067E-2	-1.756237634E-2
9.740622897E0	2.228130996E-1	8.093964309E-3	-2.046398632E-2
9.750622897E0	1.314887404E-1	-1.221730490E-3	-2.199114859E-2
9.760622897E0	5.482515693E-2	-1.069014147E-2	-2.489275858E-2
9.770622897E0	-4.123340547E-2	-2.244929783E-2	-2.519819140E-2
9.780622897E0	-1.348485053E-1	-3.176499158E-2	-2.809980139E-2
9.790622897E0	-2.249511331E-1	-4.367686436E-2	-3.451388702E-2
9.800622897E0	-3.101668358E-1	-5.543602258E-2	-3.741549700E-2
9.810622897E0	-3.941608071E-1	-7.086037099E-2	-4.153883830E-2
9.820622897E0	-4.622722864E-1	-8.399397135E-2	-4.459316283E-2
9.830622897E0	-5.511531830E-1	-9.941831976E-2	-4.978551716E-2
9.840622897E0	-6.400340796E-1	-1.137736514E-1	-5.635231733E-2
9.850622897E0	-7.276932001E-1	-1.243110746E-1	-6.765332818E-2
9.860622897E0	-8.068002462E-1	-1.350012124E-1	-7.788532227E-2
9.870622897E0	-8.859072924E-1	-1.418734491E-1	-8.827003092E-2
9.880622897E0	-9.492846131E-1	-1.488984078E-1	-9.743300825E-2
9.890622897E0	-1.027169943E0	-1.559233516E-1	-1.076650023E-1
9.900622897E0	-1.106429696E0	-1.664607823E-1	-1.227839142E-1
9.910622897E0	-1.184314966E0	-1.734857261E-1	-1.342376322E-1
9.920622897E0	-1.259909511E0	-1.866193265E-1	-1.493565589E-1
9.930622897E0	-1.331686258E0	-1.887573600E-1	-1.609629989E-1
9.940622897E0	-1.387733102E0	-1.896736622E-1	-1.750128865E-1
9.950622897E0	-1.449888706E0	-1.905899495E-1	-1.866193265E-1
9.960622897E0	-1.513265967E0	-1.988366395E-1	-2.018909603E-1
9.970622897E0	-1.574199796E0	-2.047925740E-1	-2.160935849E-1
9.980622897E0	-1.633911848E0	-2.130392492E-1	-2.277000248E-1
9.990622897E0	-1.697289109E0	-2.225076705E-1	-2.417499274E-1
1.000062290E1	-1.743562102E0	-2.270891517E-1	-2.522873580E-1
1.001062290E1	-1.797318220E0	-2.391537428E-1	-2.652682364E-1
1.002062290E1	-1.849699974E0	-2.486221492E-1	-2.780964077E-1
1.003062290E1	-1.897194743E0	-2.593123019E-1	-2.898555696E-1
1.004062290E1	-1.942398787E0	-2.677116990E-1	-3.017674387E-1
1.005062290E1	-1.982563138E0	-2.820670307E-1	-3.147483170E-1
1.006062290E1	-2.014328241E0	-2.916881442E-1	-3.229950070E-1
1.007062290E1	-2.053423405E0	-3.074179292E-1	-3.324634135E-1
1.008062290E1	-2.087479353E0	-3.182607889E-1	-3.431535661E-1
1.009062290E1	-2.119244337E0	-3.301726580E-1	-3.526219726E-1
1.010062290E1	-2.138792038E0	-3.471241891E-1	-3.620903790E-1
1.011062290E1	-2.145053387E0	-3.752239645E-1	-3.730859458E-1
1.012062290E1	-2.137722969E0	-3.801108897E-1	-3.730859458E-1
1.013062290E1	-2.121993065E0	-3.656028509E-1	-3.732386529E-1
1.014062290E1	-2.095267773E0	-3.839288056E-1	-3.723223805E-1
1.015062290E1	-2.068542480E0	-3.961461186E-1	-3.726277947E-1
1.016062290E1	-2.044260502E0	-3.950771093E-1	-3.740022480E-1
1.017062290E1	-2.008983135E0	-4.050036669E-1	-3.681990206E-1
1.018062290E1	-1.972483873E0	-4.331034720E-1	-3.611740768E-1
1.019062290E1	-1.912771821E0	-4.236350358E-1	-3.495676219E-1
1.020062290E1	-1.839620709E0	-3.972151279E-1	-3.393356502E-1
1.021062290E1	-1.765400529E0	-4.095851481E-1	-3.265074790E-1
1.022062290E1	-1.700801611E0	-4.086688459E-1	-3.136793077E-1
1.023062290E1	-1.641089439E0	-3.967569768E-1	-2.984076738E-1
1.024062290E1	-1.593594670E0	-3.933972120E-1	-2.866485119E-1
1.025062290E1	-1.527773976E0	-3.924809098E-1	-2.689334154E-1
1.026062290E1	-1.454622865E0	-3.854559660E-1	-2.489275932E-1
1.027062290E1	-1.380249977E0	-3.772092760E-1	-2.299907655E-1
1.028062290E1	-1.302212000E0	-3.642283976E-1	-2.099849284E-1
1.029062290E1	-1.227839112E0	-3.535382748E-1	-1.887573600E-1
1.030062290E1	-1.170570493E0	-3.477350473E-1	-1.722639948E-1
1.031062290E1	-1.097419381E0	-3.333797157E-1	-1.521054506E-1
1.032062290E1	-1.023046613E0	-3.106249869E-1	-1.284344196E-1
1.033062290E1	-9.448558092E-1	-2.852740586E-1	-1.072068512E-1
1.034062290E1	-8.596401215E-1	-2.661845386E-1	-8.720101416E-2
1.035062290E1	-7.667886019E-1	-2.191479057E-1	-6.612616032E-2
1.036062290E1	-6.887505651E-1	-1.890627891E-1	-4.978551716E-2
1.037062290E1	-6.145304441E-1	-2.197587788E-1	-2.596177347E-2
1.038062290E1	-5.548183322E-1	-2.286163121E-1	-7.024950348E-3
1.039062290E1	-4.876231849E-1	-1.765400618E-1	9.468411095E-3
1.040062290E1	-4.144720733E-1	-1.269072592E-1	2.825251780E-2
1.041062290E1	-3.399465084E-1	-1.003346145E-1	4.703662544E-2
1.042062290E1	-2.667953968E-1	-6.291911751E-2	6.352998316E-2
1.043062290E1	-1.740965992E-1	-2.687807009E-2	8.460483700E-2
1.044062290E1	-8.399397135E-2	-1.267545391E-2	9.834930301E-2
1.045062290E1	3.817907767E-3	5.345070735E-3	1.171334088E-1
1.046062290E1	8.552113175E-2	4.382958263E-2	1.359175146E-1
1.047062290E1	1.696678251E-1	8.613199741E-2	1.522581577E-1
1.048062290E1	2.403754741E-1	1.139263660E-1	1.661553532E-1
1.049062290E1	3.294090927E-1	1.342376322E-1	1.849394590E-1
1.050062290E1	4.085161388E-1	1.484402567E-1	2.000583708E-1
1.051062290E1	4.902193546E-1	1.724167168E-1	2.127338201E-1
1.052062290E1	5.633704662E-1	1.904372424E-1	2.302961946E-1
1.053062290E1	6.414085031E-1	2.119702399E-1	2.454151064E-1
1.054062290E1	7.096726894E-1	2.312124968E-1	2.570215464E-1
1.055062290E1	7.961101532E-1	2.490803003E-1	2.721404731E-1
1.056062290E1	8.790351152E-1	2.632829249E-1	2.834414840E-1
1.057062290E1	9.581421614E-1	2.800817192E-1	2.938261926E-1
1.058062290E1	1.033583999E0	2.906191349E-1	3.052799106E-1
1.059062290E1	1.109178543E0	3.061962128E-1	3.167336285E-1
1.060062290E1	1.170112371E0	3.168863356E-1	3.246748745E-1
1.061062290E1	1.245554209E0	3.275764883E-1	3.326161206E-1
1.062062290E1	1.323439598E0	3.321579695E-1	3.404046595E-1
1.063062290E1	1.400103092E0	3.426954150E-1	3.469714522E-1
1.064062290E1	1.473101497E0	3.460551500E-1	3.524692357E-1
1.065062290E1	1.548543453E0	3.481931984E-1	3.565925956E-1
1.066062290E1	1.604590297E0	3.515529633E-1	3.610213697E-1
1.067062290E1	1.672701716E0	3.536909819E-1	3.627012372E-1
1.068062290E1	1.734704614E0	3.498730659E-1	3.610213697E-1
1.069062290E1	1.794263959E0	3.483459055E-1	3.591887653E-1
1.070062290E1	1.852601528E0	3.457497358E-1	3.561344445E-1
1.071062290E1	1.915826082E0	3.405573666E-1	3.507893682E-1
1.072062290E1	1.970498562E0	3.318525553E-1	3.465133011E-1
1.073062290E1	2.015397072E0	3.316998184E-1	3.413209617E-1
1.074062290E1	2.068847895E0	3.301726580E-1	3.333797157E-1
1.075062290E1	2.105194330E0	3.020728528E-1	3.233004212E-1
1.076062290E1	2.129323483E0	2.715296149E-1	3.084869385E-1
1.077062290E1	2.136348486E0	2.580905557E-1	2.913827300E-1
1.078062290E1	2.131308794E0	2.556470931E-1	2.767219543E-1
1.079062290E1	2.122756720E0	2.496911734E-1	2.585487068E-1
1.080062290E1	2.120007753E0	2.411390543E-1	2.377792895E-1
1.081062290E1	2.117564440E0	2.460259795E-1	2.182316035E-1
1.082062290E1	2.105194330E0	2.388483137E-1	2.037235647E-1
1.083062290E1	2.070985794E0	2.449569702E-1	1.795943826E-1
1.084062290E1	2.025781870E0	2.464841306E-1	1.556179225E-1
1.085062290E1	1.983173966E0	2.393064648E-1	1.401935667E-1
1.086062290E1	1.926974416E0	2.261728644E-1	1.198823079E-1
1.087062290E1	1.875814438E0	2.240348309E-1	1.033889428E-1
1.088062290E1	1.826945186E0	2.278527319E-1	8.552113175E-2
1.089062290E1	1.773341775E0	2.292271852E-1	7.254024595E-2
1.090062290E1	1.712407947E0	2.234239578E-1	5.971207842E-2
1.091062290E1	1.667356730E0	2.235766798E-1	5.161811411E-2
1.092062290E1	1.607644558E0	2.104430795E-1	3.863722831E-2
1.093062290E1	1.545641780E0	2.144137025E-1	2.703078650E-2
1.094062290E1	1.478599310E0	2.134974003E-1	1.908953860E-2
1.095062290E1	1.410487890E0	1.942551434E-1	1.618792862E-2
1.096062290E1	1.334893227E0	1.727221459E-1	9.468411095E-3
1.097062290E1	1.276555657E0	1.789835095E-1	6.414085161E-3
1.098062290E1	1.203557253E0	1.853975952E-1	-3.054326226E-4
1.099062290E1	1.142776132E0	1.783726513E-1	-2.138028387E-3
1.100062290E1	1.072221279E0	1.603521258E-1	-2.748893574E-3
1.101062290E1	1.000444531E0	1.437060535E-1	-7.635815418E-4
1.102062290E1	9.237809777E-1	1.293507218E-1	-1.374446787E-3
1.103062290E1	8.530732989E-1	1.113301888E-1	-1.832595794E-3
1.104062290E1	7.655668855E-1	9.957103431E-2	-2.290744567E-3
1.105062290E1	6.779077053E-1	8.781187981E-2	-2.748893574E-3
1.106062290E1	5.928447247E-1	7.223481685E-2	-3.054326167E-3
1.107062290E1	5.125159621E-1	5.925392732E-2	-2.290744567E-3
1.108062290E1	4.297437072E-1	4.978551716E-2	-2.748893574E-3
1.109062290E1	3.652974069E-1	4.153883830E-2	3.054326226E-4
1.110062290E1	2.826778889E-1	2.733621933E-2	2.290744567E-3
1.111062290E1	1.937969923E-1	7.024950348E-3	3.054326167E-3
1.112062290E1	1.026253626E-1	-6.108652335E-3	3.970623948E-3
1.113062290E1	5.192354787E-3	-1.786780916E-2	2.443460980E-3
1.114062290E1	-8.597928286E-2	-2.596177347E-2	1.985311974E-3
1.115062290E1	-1.577559561E-1	-3.787364438E-2	3.054326226E-4
1.116062290E1	-2.441933751E-1	-5.329799280E-2	-1.374446787E-3
1.117062290E1	-3.281873465E-1	-6.994406879E-2	-3.054326167E-3
1.118062290E1	-4.097378552E-1	-8.185594529E-2	-4.734205548E-3
1.119062290E1	-4.972442985E-1	-9.728029370E-2	-6.414085161E-3
1.120062290E1	-5.849034786E-1	-1.151480973E-1	-1.282817032E-2
1.121062290E1	-6.531676650E-1	-1.258382350E-1	-1.710422710E-2
1.122062290E1	-7.359399199E-1	-1.365283877E-1	-2.489275858E-2
1.123062290E1	-8.150469661E-1	-1.458440721E-1	-3.390302137E-2
1.124062290E1	-8.917105198E-1	-1.504255682E-1	-4.413501546E-2
1.125062290E1	-9.695958495E-1	-1.598939747E-1	-5.207626149E-2
1.126062290E1	-1.045190454E0	-1.692096740E-1	-6.352998316E-2
1.127062290E1	-1.108567715E0	-1.786780804E-1	-7.513642311E-2
1.128062290E1	-1.186452985E0	-1.844813079E-1	-8.659014851E-2
1.129062290E1	-1.259451389E0	-1.915062517E-1	-9.941831976E-2
1.130062290E1	-1.326493859E0	-1.948660165E-1	-1.120937690E-1
1.131062290E1	-1.392314553E0	-1.933388561E-1	-1.261436790E-1
1.132062290E1	-1.452026725E0	-1.966986060E-1	-1.403462887E-1
1.133062290E1	-1.500743151E0	-2.038762718E-1	-1.521054506E-1
1.134062290E1	-1.562898755E0	-2.072360367E-1	-1.661553532E-1
1.135062290E1	-1.623832583E0	-2.130392492E-1	-1.789835095E-1
1.136062290E1	-1.684766293E0	-2.225076705E-1	-1.930334121E-1
1.137062290E1	-1.739591479E0	-2.284636050E-1	-2.072360367E-1
1.138062290E1	-1.790751457E0	-2.342668176E-1	-2.212859392E-1
1.139062290E1	-1.829846859E0	-2.414444834E-1	-2.331978083E-1
1.140062290E1	-1.872454643E0	-2.472477108E-1	-2.461786866E-1
1.141062290E1	-1.918880463E0	-2.580905557E-1	-2.603813112E-1
1.142062290E1	-1.957975864E0	-2.677116990E-1	-2.747366428E-1
1.143062290E1	-1.996918440E0	-2.784018219E-1	-2.864958048E-1
1.144062290E1	-2.029905319E0	-2.892446816E-1	-2.971859276E-1
1.145062290E1	-2.056783199E0	-3.025310040E-1	-3.068070710E-1
1.146062290E1	-2.084882975E0	-3.097086847E-1	-3.211624026E-1
1.147062290E1	-2.097253084E0	-3.315471113E-1	-3.320052624E-1
1.148062290E1	-2.097405910E0	-3.523165286E-1	-3.417791128E-1
1.149062290E1	-2.088853598E0	-3.400992155E-1	-3.454442918E-1
1.150062290E1	-2.066862583E0	-3.426954150E-1	-3.433062732E-1
1.151062290E1	-2.043955088E0	-3.659082949E-1	-3.434589803E-1
1.152062290E1	-2.021964073E0	-3.610213697E-1	-3.484986126E-1
1.153062290E1	-1.995238662E0	-3.611740768E-1	-3.512475193E-1
1.154062290E1	-1.957670450E0	-3.869831264E-1	-3.491095006E-1
1.155062290E1	-1.906510472E0	-3.956879675E-1	-3.362813294E-1
1.156062290E1	-1.840689659E0	-3.776674271E-1	-3.258966208E-1
1.157062290E1	-1.783421040E0	-3.730859458E-1	-3.190243840E-1
1.158062290E1	-1.715309620E0	-3.807217777E-1	-3.098613918E-1
1.159062290E1	-1.654375792E0	-3.735440969E-1	-2.982549667E-1
1.160062290E1	-1.590998530E0	-3.628539443E-1	-2.842050493E-1
1.161062290E1	-1.530064702E0	-3.607159257E-1	-2.664899528E-1
1.162062290E1	-1.464244008E0	-3.585779071E-1	-2.512183189E-1
1.163062290E1	-1.406975389E0	-3.527746797E-1	-2.371684313E-1
1.164062290E1	-1.333824277E0	-3.433062732E-1	-2.194533348E-1
1.165062290E1	-1.258382440E0	-3.326161206E-1	-2.006692290E-1
1.166062290E1	-1.181566119E0	-3.220787048E-1	-1.794416606E-1
1.167062290E1	-1.111927509E0	-3.138320148E-1	-1.580613852E-1
1.168062290E1	-1.041219831E0	-2.982549667E-1	-1.392772794E-1
1.169062290E1	-9.802860022E-1	-2.814561725E-1	-1.227839142E-1
1.170062290E1	-9.059131742E-1	-2.574796975E-1	-1.026253626E-1
1.171062290E1	-8.242099285E-1	-2.383901626E-1	-8.139779419E-2
1.172062290E1	-7.425066829E-1	-2.193006277E-1	-6.139195710E-2
1.173062290E1	-6.473644376E-1	-1.647808999E-1	-4.153883830E-2
1.174062290E1	-5.607742667E-1	-1.627955884E-1	-2.168571576E-2
1.175062290E1	-5.120577812E-1	-1.910481006E-1	-2.596177394E-3
1.176062290E1	-4.523457289E-1	-1.779145002E-1	1.023199316E-2
1.177062290E1	-3.802636266E-1	-1.148426682E-1	2.672535367E-2
1.178062290E1	-3.046690524E-1	-7.498370856E-2	4.795292020E-2
1.179062290E1	-2.254092693E-1	-5.100724846E-2	6.673702598E-2
1.180062290E1	-1.302670091E-1	-7.483099122E-3	8.659014851E-2
1.181062290E1	-5.467243865E-2	1.282817032E-2	9.941831976E-2
1.182062290E1	3.054326214E-2	1.970040426E-2	1.143845171E-1
1.183062290E1	1.122464910E-1	4.505131021E-2	1.319468915E-1
1.184062290E1	1.866193265E-1	8.491026610E-2	1.484402567E-1
1.185062290E1	2.658790946E-1	1.137736514E-1	1.660026312E-1
1.186062290E1	3.573561609E-1	1.304197311E-1	1.834122837E-1
1.187062290E1	4.254676402E-1	1.398881376E-1	1.937969923E-1
1.188062290E1	5.059491396E-1	1.675297916E-1	2.064724565E-1
1.189062290E1	5.827654600E-1	1.866193265E-1	2.215913683E-1
1.190062290E1	6.546948552E-1	1.936442852E-1	2.354885489E-1
1.191062290E1	7.289149761E-1	2.128865421E-1	2.458732575E-1
1.192062290E1	8.155050874E-1	2.405281961E-1	2.571742535E-1
1.193062290E1	8.994990587E-1	2.498438805E-1	2.674062550E-1
1.194062290E1	9.651671052E-1	2.568688393E-1	2.777909636E-1
1.195062290E1	1.043205142E0	2.687807083E-1	2.855795026E-1
1.196062290E1	1.116203547E0	2.829833329E-1	2.935207486E-1
1.197062290E1	1.186758399E0	2.887865305E-1	2.990185320E-1
1.198062290E1	1.258687854E0	3.006984293E-1	3.068070710E-1
1.199062290E1	1.331686258E0	3.077233732E-1	3.123048544E-1
1.200062290E1	1.392467380E0	3.184134960E-1	3.141374588E-1
1.201062290E1	1.471574426E0	3.217732608E-1	3.170390725E-1
1.202062290E1	1.542129278E0	3.214678466E-1	3.188716471E-1
1.203062290E1	1.609019041E0	3.211624026E-1	3.194825351E-1
1.204062290E1	1.673465371E0	3.233004212E-1	3.176499307E-1
1.205062290E1	1.737911582E0	3.242167234E-1	3.158173263E-1
1.206062290E1	1.781588435E0	3.216205537E-1	3.116939962E-1
1.207062290E1	1.837482691E0	3.165809214E-1	3.075706363E-1
1.208062290E1	1.893376827E0	3.113885522E-1	3.008511364E-1
1.209062290E1	1.948049307E0	3.136793077E-1	2.918408811E-1
1.210062290E1	2.005165100E0	3.170390725E-1	2.816088796E-1
1.211062290E1	2.057241440E0	2.948952019E-1	2.738203406E-1
1.212062290E1	2.081523418E0	2.680171132E-1	2.649627924E-1
1.213062290E1	2.094656944E0	2.545780838E-1	2.538145185E-1
1.214062290E1	2.088548183E0	2.594650090E-1	2.331978083E-1
1.215062290E1	2.079690695E0	2.449569702E-1	2.101376504E-1
1.216062290E1	2.077094555E0	2.461786866E-1	1.881465018E-1
1.217062290E1	2.080606937E0	2.425135076E-1	1.734857261E-1
1.218062290E1	2.082897663E0	2.267837226E-1	1.624901593E-1
1.219062290E1	2.064571857E0	2.487748712E-1	1.406517178E-1
1.220062290E1	2.023185730E0	2.611449063E-1	1.191187203E-1
1.221062290E1	1.968207836E0	2.466368377E-1	9.880745411E-2
1.222062290E1	1.913229942E0	2.286163121E-1	7.987063378E-2
1.223062290E1	1.860848308E0	2.301434875E-1	6.200282276E-2
1.224062290E1	1.826792479E0	2.425135076E-1	4.764748737E-2
1.225062290E1	1.784031987E0	2.451096773E-1	3.466660157E-2
1.226062290E1	1.729206800E0	2.379320115E-1	2.535090782E-2
1.227062290E1	1.663538814E0	2.345722616E-1	1.374446787E-2
1.228062290E1	1.603826642E0	2.324342281E-1	5.803219974E-3
1.229062290E1	1.540449381E0	2.266310006E-1	-7.024950348E-3
1.230062290E1	1.492954612E0	2.292271852E-1	-1.389718428E-2
1.231062290E1	1.432173610E0	2.307543457E-1	-1.817324013E-2
1.232062290E1	1.365283847E0	2.090686262E-1	-1.634064503E-2
1.233062290E1	1.294576168E0	1.875356287E-1	-1.817324013E-2
1.234062290E1	1.219287038E0	1.902845204E-1	-2.107485011E-2
1.235062290E1	1.147510409E0	1.977676302E-1	-2.412917651E-2
1.236062290E1	1.086729288E0	1.931861341E-1	-2.351831272E-2
1.237062290E1	1.020908594E0	1.702786833E-1	-1.924225502E-2
1.238062290E1	9.503536224E-1	1.475239545E-1	-1.618792862E-2
1.239062290E1	8.750644922E-1	1.404990107E-1	-1.298088674E-2
1.240062290E1	7.959573865E-1	1.298088580E-1	-1.114829071E-2
1.241062290E1	7.108944058E-1	1.156062484E-1	-7.788531948E-3
1.242062290E1	6.414085031E-1	9.636399150E-2	-4.734205548E-3
1.243062290E1	5.539020896E-1	7.238753140E-2	-3.054326226E-4
1.244062290E1	4.686863720E-1	5.818491429E-2	4.581489484E-4
1.245062290E1	3.848451078E-1	5.115996301E-2	4.886921961E-3
1.246062290E1	3.034473062E-1	4.550946131E-2	6.872233935E-3
1.247062290E1	2.218967974E-1	2.871066704E-2	1.130100712E-2
1.248062290E1	1.562287807E-1	9.621127509E-3	1.557706390E-2
1.249062290E1	6.612616032E-2	-8.399397135E-3	1.771509275E-2
1.250062290E1	-2.382374369E-2	-1.771509275E-2	2.092213556E-2
1.251062290E1	-1.162171140E-1	-2.947424725E-2	2.306016348E-2
1.252062290E1	-2.063197345E-1	-4.978551716E-2	2.504547499E-2
1.253062290E1	-2.927571833E-1	-7.498370856E-2	2.474004216E-2
1.254062290E1	-3.547599912E-1	-8.323039114E-2	2.519819140E-2
1.255062290E1	-4.361577928E-1	-8.903361112E-2	2.474004216E-2
1.256062290E1	-5.189300179E-1	-1.081231460E-1	2.306016348E-2
1.257062290E1	-6.017022729E-1	-1.273654103E-1	2.138028294E-2
1.258062290E1	-6.869179606E-1	-1.427897513E-1	1.740965992E-2
1.259062290E1	-7.709119320E-1	-1.533271819E-1	1.084285788E-2
1.260062290E1	-8.353582025E-1	-1.568396538E-1	4.123340361E-3
1.261062290E1	-9.109528065E-1	-1.624901593E-1	-3.665191587E-3
1.262062290E1	-9.827294350E-1	-1.731802970E-1	-1.038470957E-2
1.263062290E1	-1.054506183E0	-1.850921661E-1	-1.954768784E-2
1.264062290E1	-1.130100727E0	-1.933388561E-1	-3.100141138E-2
1.265062290E1	-1.205542564E0	-1.989893466E-1	-4.245513305E-2
1.266062290E1	-1.262811184E0	-2.000583708E-1	-5.299255997E-2
1.267062290E1	-1.329853654E0	-1.985312104E-1	-6.337726861E-2
1.268062290E1	-1.394299865E0	-2.043344229E-1	-7.605272532E-2
1.269062290E1	-1.454012036E0	-2.052507252E-1	-8.903361112E-2
1.270062290E1	-1.516167521E0	-2.122756690E-1	-1.055269688E-1
1.271062290E1	-1.575879574E0	-2.121229619E-1	-1.171334088E-1
1.272062290E1	-1.620930910E0	-2.154827118E-1	-1.276708394E-1
1.273062290E1	-1.675756097E0	-2.238821089E-1	-1.394299865E-1
1.274062290E1	-1.728290439E0	-2.284636050E-1	-1.548543423E-1
1.275062290E1	-1.779450417E0	-2.319760770E-1	-1.713477075E-1
1.276062290E1	-1.825723529E0	-2.365575731E-1	-1.843285859E-1
1.277062290E1	-1.869705796E0	-2.449569702E-1	-1.999056488E-1
1.278062290E1	-1.901470780E0	-2.533563673E-1	-2.118175179E-1
1.279062290E1	-1.940566182E0	-2.591595948E-1	-2.272418737E-1
1.280062290E1	-1.975843668E0	-2.638937831E-1	-2.391537428E-1
1.281062290E1	-2.007608652E0	-2.796235681E-1	-2.510656118E-1
1.282062290E1	-2.034486771E0	-2.868012190E-1	-2.666426897E-1
1.283062290E1	-2.054187059E0	-2.988658249E-1	-2.811507285E-1
1.284062290E1	-2.060295820E0	-3.135266006E-1	-2.919935882E-1
1.285062290E1	-2.056783199E0	-3.184134960E-1	-2.994766831E-1
1.286062290E1	-2.042122602E0	-3.110831380E-1	-3.031418920E-1
1.287062290E1	-2.016771555E0	-3.318525553E-1	-3.058907688E-1
1.288062290E1	-1.994933128E0	-3.258966208E-1	-3.121521473E-1
1.289062290E1	-1.970651269E0	-3.211624026E-1	-3.173444867E-1
1.290062290E1	-1.946369410E0	-3.431535661E-1	-3.162754774E-1
1.291062290E1	-1.903761506E0	-3.665191531E-1	-3.130684495E-1
1.292062290E1	-1.850158095E0	-3.532328308E-1	-3.061962128E-1
1.293062290E1	-1.780824900E0	-3.390302062E-1	-2.984076738E-1
1.294062290E1	-1.713935137E0	-3.465133011E-1	-2.929098904E-1
1.295062290E1	-1.646892667E0	-3.455969989E-1	-2.837468982E-1
1.296062290E1	-1.598176241E0	-3.324634135E-1	-2.744311988E-1
1.297062290E1	-1.543351054E0	-3.303253949E-1	-2.638937831E-1
1.298062290E1	-1.481195450E0	-3.341432810E-1	-2.486221492E-1
1.299062290E1	-1.414305806E0	-3.295617998E-1	-2.382374406E-1
1.300062290E1	-1.341154695E0	-3.176499307E-1	-2.218967974E-1
1.301062290E1	-1.265560031E0	-3.058907688E-1	-2.018909603E-1
1.302062290E1	-1.192408919E0	-2.988658249E-1	-1.841758788E-1
1.303062290E1	-1.135140300E0	-2.955060601E-1	-1.713477075E-1
1.304062290E1	-1.066876173E0	-2.860376537E-1	-1.548543423E-1
1.305062290E1	-9.949467778E-1	-2.667953968E-1	-1.372919679E-1
1.306062290E1	-9.230173826E-1	-2.477058619E-1	-1.183551401E-1
1.307062290E1	-8.425359130E-1	-2.261728644E-1	-9.712757170E-2
1.308062290E1	-7.632761002E-1	-2.118175179E-1	-7.834346592E-2
1.309062290E1	-6.913467646E-1	-1.780672222E-1	-6.566801667E-2
1.310062290E1	-5.986479521E-1	-1.467603743E-1	-4.444044828E-2
1.311062290E1	-5.268712640E-1	-1.774563491E-1	-2.809980139E-2
1.312062290E1	-4.683809280E-1	-1.789835095E-1	-1.389718428E-2
1.313062290E1	-3.999640048E-1	-1.244637966E-1	2.443460980E-3
1.314062290E1	-3.280346394E-1	-8.216137439E-2	2.015855350E-2
1.315062290E1	-2.658790946E-1	-6.658431143E-2	3.420845419E-2
1.316062290E1	-1.768454909E-1	-3.649919853E-2	5.406157300E-2
1.317062290E1	-8.781187981E-2	-5.345070735E-3	6.795875728E-2
1.318062290E1	3.512475174E-3	1.618792862E-2	8.170322329E-2
1.319062290E1	8.155050874E-2	2.321287990E-2	9.804387391E-2
1.320062290E1	1.534798890E-1	5.451972410E-2	1.157589629E-1
1.321062290E1	2.144137025E-1	9.086620808E-2	1.273654103E-1
1.322062290E1	3.034473062E-1	1.099557430E-1	1.435533315E-1
1.323062290E1	3.898847401E-1	1.107193232E-1	1.574505121E-1
1.324062290E1	4.703662395E-1	1.444696337E-1	1.701259762E-1
1.325062290E1	5.484042764E-1	1.698205322E-1	1.828014255E-1
1.326062290E1	6.165157557E-1	1.634064466E-1	1.944078654E-1
1.327062290E1	6.737843752E-1	1.740965992E-1	2.023491114E-1
1.328062290E1	7.554876208E-1	2.139555514E-1	2.138028294E-1
1.329062290E1	8.382598162E-1	2.281581759E-1	2.228130996E-1
1.330062290E1	9.222537875E-1	2.302961946E-1	2.330450863E-1
1.331062290E1	1.000139117E0	2.409863323E-1	2.420553565E-1
1.332062290E1	1.070846796E0	2.564106882E-1	2.487748712E-1
1.333062290E1	1.127962708E0	2.623666227E-1	2.530509233E-1
1.334062290E1	1.197295904E0	2.681698501E-1	2.585487068E-1
1.335062290E1	1.271668673E0	2.835941911E-1	2.616030276E-1
1.336062290E1	1.347110629E0	2.955060601E-1	2.669481039E-1
1.337062290E1	1.421330690E0	3.013092875E-1	2.698497176E-1
1.338062290E1	1.493107319E0	3.022255898E-1	2.716823220E-1
1.339062290E1	1.546558142E0	3.031418920E-1	2.712241709E-1
1.340062290E1	1.612226129E0	3.065016270E-1	2.706133127E-1
1.341062290E1	1.673007131E0	3.087923825E-1	2.675589919E-1
1.342062290E1	1.733788252E0	3.121521473E-1	2.645046413E-1
1.343062290E1	1.789682508E0	3.094032407E-1	2.603813112E-1
1.344062290E1	1.841911435E0	3.055853248E-1	2.550362349E-1
1.345062290E1	1.888031721E0	3.078760803E-1	2.472477108E-1
1.346062290E1	1.942704201E0	3.124575615E-1	2.382374406E-1
1.347062290E1	1.994933128E0	3.098613918E-1	2.304489166E-1
1.348062290E1	2.032501459E0	2.732094824E-1	2.202169150E-1
1.349062290E1	2.052965403E0	2.573269904E-1	2.115120888E-1
1.350062290E1	2.049300194E0	2.646573782E-1	1.980730593E-1
1.351062290E1	2.043038845E0	2.609921694E-1	1.798998117E-1
1.352062290E1	2.040442705E0	2.512183189E-1	1.603521258E-1
1.353062290E1	2.040289879E0	2.536617815E-1	1.444696337E-1
1.354062290E1	2.043802500E0	2.451096773E-1	1.334740520E-1
1.355062290E1	2.034028530E0	2.512183189E-1	1.165225431E-1
1.356062290E1	2.001041889E0	2.721404731E-1	9.850201756E-2
1.357062290E1	1.957212210E0	2.698497176E-1	8.307767659E-2
1.358062290E1	1.905899525E0	2.506074607E-1	6.398813426E-2
1.359062290E1	1.852296114E0	2.448042482E-1	4.734205827E-2
1.360062290E1	1.810909986E0	2.596177161E-1	3.436116874E-2
1.361062290E1	1.768149495E0	2.597704530E-1	2.504547499E-2
1.362062290E1	1.719432950E0	2.513710558E-1	1.572977938E-2
1.363062290E1	1.669647455E0	2.467895597E-1	1.130100712E-2
1.364062290E1	1.606270194E0	2.567161322E-1	9.162978968E-4
1.365062290E1	1.543045640E0	2.521346211E-1	-7.024950348E-3
1.366062290E1	1.484555244E0	2.451096773E-1	-1.267545391E-2
1.367062290E1	1.428508401E0	2.393064648E-1	-1.450804994E-2
1.368062290E1	1.366505504E0	2.310597748E-1	-1.511891466E-2
1.369062290E1	1.310611367E0	2.214386463E-1	-1.343903504E-2
1.370062290E1	1.233947754E0	2.060143054E-1	-1.389718428E-2
1.371062290E1	1.160949349E0	2.038762718E-1	-1.328631863E-2
1.372062290E1	1.085507512E0	1.980730593E-1	-1.130100712E-2
1.373062290E1	1.016174316E0	1.861611903E-1	-8.246680722E-3
1.374062290E1	9.505063295E-1	1.669189334E-1	-2.748893574E-3
1.375062290E1	8.946121335E-1	1.586722434E-1	1.527163113E-4
1.376062290E1	8.203920126E-1	1.467603743E-1	5.803219974E-3
1.377062290E1	7.414376736E-1	1.276708394E-1	1.267545391E-2
1.378062290E1	6.562219858E-1	1.073595658E-1	1.710422710E-2
1.379062290E1	5.711590052E-1	8.460483700E-2	2.275473066E-2
1.380062290E1	4.859432876E-1	7.024950534E-2	2.596177347E-2
1.381062290E1	4.155410826E-1	5.833763257E-2	3.023782931E-2
1.382062290E1	3.327688277E-1	4.780020565E-2	3.344487399E-2
1.383062290E1	2.548835278E-1	3.222314268E-2	3.909537569E-2
1.384062290E1	1.698205322E-1	1.679879427E-2	4.474587739E-2
1.385062290E1	8.827003092E-2	2.443460980E-3	4.795292020E-2
1.386062290E1	-4.581489484E-4	-1.786780916E-2	5.375614017E-2
1.387062290E1	-7.101308554E-2	-2.733621933E-2	5.681046844E-2
1.388062290E1	-1.621847153E-1	-4.398229718E-2	5.757404864E-2
1.389062290E1	-2.474004179E-1	-6.307183951E-2	6.093380973E-2
1.390062290E1	-3.313944042E-1	-7.849618047E-2	6.047565863E-2
1.391062290E1	-4.066835344E-1	-8.918632567E-2	6.108652428E-2
1.392062290E1	-4.882340431E-1	-1.070541367E-1	5.940664560E-2
1.393062290E1	-5.563455224E-1	-1.226311997E-1	6.001751125E-2
1.394062290E1	-6.366742849E-1	-1.369865239E-1	5.711590126E-2
1.395062290E1	-7.206682563E-1	-1.475239545E-1	5.192354694E-2
1.396062290E1	-7.997753024E-1	-1.545489132E-1	4.520402849E-2
1.397062290E1	-8.764389157E-1	-1.626428664E-1	3.863722831E-2
1.398062290E1	-9.495900273E-1	-1.696678251E-1	2.962696366E-2
1.399062290E1	-1.005636930E0	-1.768454909E-1	2.275473066E-2
1.400062290E1	-1.077413559E0	-1.861611903E-1	1.130100712E-2
1.401062290E1	-1.149343014E0	-1.919644028E-1	-3.054326226E-4
1.402062290E1	-1.222341299E0	-1.953241676E-1	-1.175915636E-2
1.403062290E1	-1.289383769E0	-1.974621862E-1	-2.580905706E-2
1.404062290E1	-1.356426239E0	-1.996002197E-1	-3.863722831E-2
1.405062290E1	-1.406364560E0	-1.994474977E-1	-5.039638281E-2
1.406062290E1	-1.464854836E0	-2.028072625E-1	-6.444628537E-2
1.407062290E1	-1.522123456E0	-2.026545405E-1	-7.987063378E-2
1.408062290E1	-1.579392076E0	-2.060143054E-1	-9.392052889E-2
1.409062290E1	-1.634217262E0	-2.105957866E-1	-1.093448773E-1
1.410062290E1	-1.686598897E0	-2.165517360E-1	-1.258382350E-1
1.411062290E1	-1.734246373E0	-2.186897546E-1	-1.424843222E-1
1.412062290E1	-1.771967411E0	-2.197587788E-1	-1.556179225E-1
1.413062290E1	-1.815949678E0	-2.257147133E-1	-1.710422635E-1
1.414062290E1	-1.858710170E0	-2.339613885E-1	-1.889100820E-1
1.415062290E1	-1.898874640E0	-2.411390543E-1	-2.057088763E-1
1.416062290E1	-1.931861281E0	-2.458732575E-1	-2.225076705E-1
1.417062290E1	-1.966069818E0	-2.554943860E-1	-2.368630022E-1
1.418062290E1	-1.989282727E0	-2.651155293E-1	-2.487748712E-1
1.419062290E1	-2.011426449E0	-2.722931802E-1	-2.632829249E-1
1.420062290E1	-2.022422075E0	-2.868012190E-1	-2.802344263E-1
1.421062290E1	-2.018909693E0	-2.953533530E-1	-2.912299931E-1
1.422062290E1	-2.004401684E0	-2.955060601E-1	-2.962696552E-1
1.423062290E1	-1.983784914E0	-3.077233732E-1	-3.025310040E-1
1.424062290E1	-1.964389920E0	-3.040581644E-1	-3.075706363E-1
1.425062290E1	-1.946216702E0	-2.993239760E-1	-3.150537610E-1
1.426062290E1	-1.918269634E0	-3.200933933E-1	-3.190243840E-1
1.427062290E1	-1.880701423E0	-3.397938013E-1	-3.181080818E-1
1.428062290E1	-1.833206654E0	-3.436116874E-1	-3.124575615E-1
1.429062290E1	-1.771051049E0	-3.268128932E-1	-3.081815243E-1
1.430062290E1	-1.715156913E0	-3.234531581E-1	-3.037527502E-1
1.431062290E1	-1.648267150E0	-3.298672438E-1	-2.971859276E-1
1.432062290E1	-1.584889889E0	-3.228422701E-1	-2.880229652E-1
1.433062290E1	-1.531286478E0	-3.168863356E-1	-2.762638032E-1
1.434062290E1	-1.472796082E0	-3.171917796E-1	-2.657263875E-1
1.435062290E1	-1.408197165E0	-3.187189400E-1	-2.530509233E-1
1.436062290E1	-1.353371978E0	-3.127630055E-1	-2.425135076E-1
1.437062290E1	-1.277930140E0	-2.985603809E-1	-2.261728644E-1
1.438062290E1	-1.204779029E0	-2.927571833E-1	-2.084577680E-1
1.439062290E1	-1.135293007E0	-2.857322097E-1	-1.908953935E-1
1.440062290E1	-1.064585447E0	-2.787072659E-1	-1.756237596E-1
1.441062290E1	-9.950994849E-1	-2.643519342E-1	-1.603521258E-1
1.442062290E1	-9.390525818E-1	-2.499966025E-1	-1.438587606E-1
1.443062290E1	-8.646797538E-1	-2.357939780E-1	-1.275181174E-1
1.444062290E1	-7.878634334E-1	-2.153300047E-1	-1.073595658E-1
1.445062290E1	-7.049384713E-1	-1.864666194E-1	-8.979719132E-2
1.446062290E1	-6.097962260E-1	-1.394299865E-1	-7.116580009E-2
1.447062290E1	-5.355761051E-1	-1.664607823E-1	-5.238169432E-2
1.448062290E1	-4.893030524E-1	-1.837177277E-1	-4.062253982E-2
1.449062290E1	-4.259257913E-1	-1.511891484E-1	-2.657263726E-2
1.450062290E1	-3.514002264E-1	-9.666942805E-2	-1.023199316E-2
1.451062290E1	-2.770273983E-1	-7.147123665E-2	7.483099122E-3
1.452062290E1	-1.916589737E-1	-4.627304152E-2	2.611448988E-2
1.453062290E1	-1.050688252E-1	-1.496619824E-2	4.367686436E-2
1.454062290E1	-3.558290005E-2	-6.108652451E-4	5.406157300E-2
1.455062290E1	4.718934000E-2	1.237002108E-2	6.918048859E-2
1.456062290E1	1.215621829E-1	3.161227703E-2	8.552113175E-2
1.457062290E1	1.922698319E-1	6.902777404E-2	1.007927656E-1
1.458062290E1	2.739730477E-1	1.015563458E-1	1.169806942E-1
1.459062290E1	3.628539443E-1	1.023199260E-1	1.320996135E-1
1.460062290E1	4.298964143E-1	1.130100712E-1	1.424843222E-1
1.461062290E1	5.079344511E-1	1.492038369E-1	1.539380401E-1
1.462062290E1	5.786421299E-1	1.611157060E-1	1.667662114E-1
1.463062290E1	6.467535496E-1	1.620320082E-1	1.782199293E-1
1.464062290E1	7.247915864E-1	1.921171248E-1	1.884519309E-1
1.465062290E1	8.063421249E-1	2.186897546E-1	1.974621862E-1
1.466062290E1	8.758280277E-1	2.220495194E-1	2.066251636E-1
1.467062290E1	9.549350739E-1	2.264782935E-1	2.156354338E-1
1.468062290E1	1.026711702E0	2.420553565E-1	2.223549485E-1
1.469062290E1	1.093754172E0	2.551889420E-1	2.278527319E-1
1.470062290E1	1.164309144E0	2.634356320E-1	2.344195396E-1
1.471062290E1	1.236085773E0	2.739730477E-1	2.399173230E-1
1.472062290E1	1.294576168E0	2.860376537E-1	2.429716438E-1
1.473062290E1	1.368796349E0	2.941316068E-1	2.472477108E-1
1.474062290E1	1.440572977E0	2.962696552E-1	2.489275932E-1
1.475062290E1	1.506240964E0	2.984076738E-1	2.495384514E-1
1.476062290E1	1.569465518E0	3.031418920E-1	2.503020465E-1
1.477062290E1	1.631468296E0	3.089450896E-1	2.472477108E-1
1.478062290E1	1.677741408E0	3.098613918E-1	2.455678284E-1
1.479062290E1	1.733635545E0	3.097086847E-1	2.426662147E-1
1.480062290E1	1.788308024E0	3.058907688E-1	2.383901626E-1
1.481062290E1	1.841758728E0	3.116939962E-1	2.330450863E-1
1.482062290E1	1.898874640E0	3.174972236E-1	2.240348309E-1
1.483062290E1	1.948660135E0	3.173444867E-1	2.174680233E-1
1.484062290E1	1.982563138E0	2.904664278E-1	2.110539377E-1
1.485062290E1	2.005623341E0	2.672535479E-1	2.034181207E-1
1.486062290E1	2.011579275E0	2.732094824E-1	1.924225539E-1
1.487062290E1	2.006539583E0	2.733621895E-1	1.740965992E-1
1.488062290E1	2.001499891E0	2.611449063E-1	1.571450830E-1
1.489062290E1	2.001347303E0	2.660318017E-1	1.400408596E-1
1.490062290E1	2.005012512E0	2.611449063E-1	1.327104717E-1
1.491062290E1	2.007303238E0	2.562579811E-1	1.204931661E-1
1.492062290E1	1.979203343E0	2.782491148E-1	1.047633886E-1
1.493062290E1	1.934152126E0	2.846632004E-1	8.811730891E-2
1.494062290E1	1.877952456E0	2.568688393E-1	7.162395120E-2
1.495062290E1	1.830457687E0	2.570215464E-1	5.619960278E-2
1.496062290E1	1.791514993E0	2.632829249E-1	4.550946131E-2
1.497062290E1	1.755015850E0	2.658790946E-1	3.863722831E-2
1.498062290E1	1.709964514E0	2.648100853E-1	2.916881628E-2
1.499062290E1	1.652695894E0	2.590068579E-1	2.489275858E-2
1.500062290E1	1.589471340E0	2.593123019E-1	1.817324013E-2
1.501062290E1	1.526094079E0	2.583959997E-1	1.023199316E-2
1.502062290E1	1.479821086E0	2.524400651E-1	4.581489135E-3
1.503062290E1	1.426217675E0	2.454151064E-1	1.374446787E-3
1.504062290E1	1.366658211E0	2.419026345E-1	1.832595794E-3
1.505062290E1	1.303433776E0	2.299907655E-1	4.886921961E-3
1.506062290E1	1.232878804E0	2.109012306E-1	5.650503561E-3
1.507062290E1	1.154993415E0	2.014328092E-1	5.039638374E-3
1.508062290E1	1.092990637E0	2.041817009E-1	6.872233935E-3
1.509062290E1	1.022435665E0	1.971567571E-1	9.926560335E-3
1.510062290E1	9.567676783E-1	1.754710376E-1	1.420261711E-2
1.511062290E1	8.910996914E-1	1.574505121E-1	2.092213556E-2
1.512062290E1	8.194757104E-1	1.492038369E-1	2.657263726E-2
1.513062290E1	7.440338731E-1	1.386664063E-1	3.084869497E-2
1.514062290E1	6.783658266E-1	1.145372316E-1	3.634648025E-2
1.515062290E1	5.943718553E-1	9.300423414E-2	4.199698567E-2
1.516062290E1	5.068654418E-1	7.376197726E-2	4.780020565E-2
1.517062290E1	4.230241776E-1	6.566801667E-2	5.100724846E-2
1.518062290E1	3.365867436E-1	4.780020565E-2	5.665775016E-2
1.519062290E1	2.587014437E-1	3.222314268E-2	6.108652428E-2
1.520062290E1	1.942551434E-1	1.908953860E-2	6.414084882E-2
1.521062290E1	1.153008118E-1	6.108652335E-3	6.841690838E-2
1.522062290E1	3.252857551E-2	-1.069014147E-2	7.284568250E-2
1.523062290E1	-5.619960278E-2	-2.611448988E-2	7.620543987E-2
1.524062290E1	-1.450804919E-1	-4.031710699E-2	7.941248268E-2
1.525062290E1	-2.301434875E-1	-6.200282276E-2	8.017606288E-2
1.526062290E1	-3.116939962E-1	-7.742717117E-2	7.971791178E-2
1.527062290E1	-3.749185503E-1	-8.567385375E-2	8.032877743E-2
1.528062290E1	-4.528038502E-1	-9.636399150E-2	7.987063378E-2
1.529062290E1	-5.331326723E-1	-1.154535338E-1	7.819075137E-2
1.530062290E1	-6.134614348E-1	-1.308778822E-1	7.528914511E-2
1.531062290E1	-6.974554062E-1	-1.403462887E-1	6.994406879E-2
1.532062290E1	-7.765624523E-1	-1.510364264E-1	6.215553731E-2
1.533062290E1	-8.362745047E-1	-1.556179225E-1	5.665775016E-2
1.534062290E1	-9.080511928E-1	-1.638645977E-1	4.627304152E-2
1.535062290E1	-9.775370955E-1	-1.696678251E-1	3.833179548E-2
1.536062290E1	-1.049313784E0	-1.789835095E-1	2.565634064E-2
1.537062290E1	-1.122464895E0	-1.860084683E-1	1.404990070E-2
1.538062290E1	-1.191798091E0	-1.869247705E-1	-1.069014193E-3
1.539062290E1	-1.245401502E0	-1.892155111E-1	-1.038470957E-2
1.540062290E1	-1.312443972E0	-1.913535446E-1	-2.565634064E-2
1.541062290E1	-1.369712591E0	-1.922698319E-1	-3.970624134E-2
1.542062290E1	-1.429424644E0	-1.931861341E-1	-5.497787148E-2
1.543062290E1	-1.485471606E0	-1.942551434E-1	-7.162395120E-2
1.544062290E1	-1.543961883E0	-1.963931769E-1	-8.811730891E-2
1.545062290E1	-1.586722493E0	-2.011273801E-1	-1.012509167E-1
1.546062290E1	-1.642769337E0	-2.057088763E-1	-1.189660057E-1
1.547062290E1	-1.689195156E0	-2.092213482E-1	-1.368338168E-1
1.548062290E1	-1.735468149E0	-2.101376504E-1	-1.534798890E-1
1.549062290E1	-1.778228760E0	-2.160935849E-1	-1.725694388E-1
1.550062290E1	-1.818545818E0	-2.244929820E-1	-1.893682331E-1
1.551062290E1	-1.849089146E0	-2.280054539E-1	-2.049452960E-1
1.552062290E1	-1.886810064E0	-2.350303978E-1	-2.215913683E-1
1.553062290E1	-1.918575048E0	-2.434297949E-1	-2.371684313E-1
1.554062290E1	-1.948049307E0	-2.518292069E-1	-2.528982162E-1
1.555062290E1	-1.971262097E0	-2.602286041E-1	-2.684752643E-1
1.556062290E1	-1.984853864E0	-2.773328125E-1	-2.854267955E-1
1.557062290E1	-1.984853864E0	-2.881756723E-1	-2.964223623E-1
1.558062290E1	-1.974011064E0	-2.834414840E-1	-3.051272035E-1
1.559062290E1	-1.954616070E0	-2.919935882E-1	-3.101668358E-1
1.560062290E1	-1.930334210E0	-3.006984293E-1	-3.152064681E-1
1.561062290E1	-1.912160993E0	-2.933680415E-1	-3.239113092E-1
1.562062290E1	-1.890322447E0	-3.055853248E-1	-3.278819323E-1
1.563062290E1	-1.862528086E0	-3.277291954E-1	-3.304781020E-1
1.564062290E1	-1.818698525E0	-3.413209617E-1	-3.272710443E-1
1.565062290E1	-1.763873339E0	-3.220787048E-1	-3.216205537E-1
1.566062290E1	-1.698205352E0	-3.150537610E-1	-3.161227703E-1
1.567062290E1	-1.627650499E0	-3.249803185E-1	-3.095559776E-1
1.568062290E1	-1.567938328E0	-3.203988075E-1	-3.002402782E-1
1.569062290E1	-1.525330544E0	-3.132211566E-1	-2.933680415E-1
1.570062290E1	-1.469283581E0	-3.159700334E-1	-2.829833329E-1
1.571062290E1	-1.407128096E0	-3.150537610E-1	-2.712241709E-1
1.572062290E1	-1.342681766E0	-3.104722500E-1	-2.583959997E-1
1.573062290E1	-1.269530654E0	-2.973386645E-1	-2.432770878E-1
1.574062290E1	-1.197601318E0	-2.903137207E-1	-2.244929820E-1
1.575062290E1	-1.139110923E0	-2.845104933E-1	-2.102903575E-1
1.576062290E1	-1.072068453E0	-2.799290121E-1	-1.937969923E-1
1.577062290E1	-1.003804326E0	-2.692388594E-1	-1.798998117E-1
1.578062290E1	-9.355401397E-1	-2.536617815E-1	-1.621847153E-1
1.579062290E1	-8.648324609E-1	-2.370157093E-1	-1.432479024E-1
1.580062290E1	-7.904596329E-1	-2.202169150E-1	-1.256855279E-1
1.581062290E1	-7.246388793E-1	-2.034181207E-1	-1.104138941E-1
1.582062290E1	-6.368269920E-1	-1.588249654E-1	-9.178250283E-2
1.583062290E1	-5.465716720E-1	-1.385136992E-1	-7.422012836E-2
1.584062290E1	-4.833471179E-1	-1.716531366E-1	-5.894849449E-2
1.585062290E1	-4.248567820E-1	-1.597412676E-1	-4.367686436E-2
1.586062290E1	-3.552181423E-1	-1.052215397E-1	-2.718350291E-2
1.587062290E1	-2.941316068E-1	-7.742717117E-2	-1.191187184E-2
1.588062290E1	-2.162462920E-1	-6.078109145E-2	6.872233935E-3
1.589062290E1	-1.308778822E-1	-2.703078650E-2	2.443460934E-2
1.590062290E1	-4.428773001E-2	-5.497787148E-3	3.940080851E-2
1.591062290E1	3.481931984E-2	1.252273750E-2	5.207626149E-2
1.592062290E1	1.128573567E-1	2.794708498E-2	6.856962293E-2
1.593062290E1	1.690569520E-1	4.718934000E-2	8.261952549E-2
1.594062290E1	2.446515262E-1	8.460483700E-2	9.896016866E-2
1.595062290E1	3.274237812E-1	1.061378345E-1	1.128573567E-1
1.596062290E1	4.103487432E-1	1.082758680E-1	1.267545372E-1
1.597062290E1	4.906775057E-1	1.359175146E-1	1.357648075E-1
1.598062290E1	5.638286471E-1	1.624901593E-1	1.498146951E-1
1.599062290E1	6.210972667E-1	1.609629989E-1	1.614211351E-1
1.600062290E1	6.918048859E-1	1.765400618E-1	1.730275750E-1
1.601062290E1	7.710646391E-1	2.090686262E-1	1.844813079E-1
1.602062290E1	8.513934612E-1	2.196060568E-1	1.934915632E-1
1.603062290E1	9.305005074E-1	2.254092693E-1	2.012801021E-1
1.604062290E1	1.003498912E0	2.385428846E-1	2.102903575E-1
1.605062290E1	1.057102323E0	2.504547536E-1	2.147191316E-1
1.606062290E1	1.126588225E0	2.623666227E-1	2.214386463E-1
1.607062290E1	1.194699645E0	2.718350291E-1	2.269364446E-1
1.608062290E1	1.266476393E0	2.848159075E-1	2.335032374E-1
1.609062290E1	1.339474797E0	2.967278063E-1	2.365575731E-1
1.610062290E1	1.412473202E0	2.988658249E-1	2.394591719E-1
1.611062290E1	1.462411404E0	2.974913716E-1	2.402227521E-1
1.612062290E1	1.525635958E0	3.045163155E-1	2.396118939E-1
1.613062290E1	1.587638736E0	3.127630055E-1	2.402227521E-1
1.614062290E1	1.644754648E0	3.124575615E-1	2.385428846E-1
1.615062290E1	1.700801611E0	3.147483170E-1	2.368630022E-1
1.616062290E1	1.756695747E0	3.168863356E-1	2.350303978E-1
1.617062290E1	1.796707392E0	3.142901659E-1	2.298380435E-1
1.618062290E1	1.850310802E0	3.202461004E-1	2.232712507E-1
1.619062290E1	1.898874640E0	3.223841190E-1	2.167044431E-1
1.620062290E1	1.940108061E0	2.967278063E-1	2.113593817E-1
1.621062290E1	1.965458870E0	2.759583890E-1	2.063197345E-1
1.622062290E1	1.972789288E0	2.819143236E-1	1.963931769E-1
1.623062290E1	1.966527939E0	2.868012190E-1	1.831068546E-1
1.624062290E1	1.966375232E0	2.722931802E-1	1.672243625E-1
1.625062290E1	1.966222525E0	2.784018219E-1	1.537853181E-1
1.626062290E1	1.969887733E0	2.722931802E-1	1.440114826E-1
1.627062290E1	1.969735026E0	2.551889420E-1	1.330159009E-1
1.628062290E1	1.943009615E0	2.881756723E-1	1.186605766E-1
1.629062290E1	1.910022855E0	2.932153046E-1	1.055269688E-1
1.630062290E1	1.862375379E0	2.715296149E-1	9.132435173E-2
1.631062290E1	1.811215401E0	2.594650090E-1	7.834346592E-2
1.632062290E1	1.763720632E0	2.683225572E-1	6.658431143E-2
1.633062290E1	1.725999713E0	2.684752643E-1	5.711590126E-2
1.634062290E1	1.684460878E0	2.710714638E-1	4.902193695E-2
1.635062290E1	1.643074751E0	2.651155293E-1	4.444044828E-2
1.636062290E1	1.579850197E0	2.580905557E-1	4.138612002E-2
1.637062290E1	1.517847419E0	2.583959997E-1	3.344487399E-2
1.638062290E1	1.459357023E0	2.548835278E-1	2.916881628E-2
1.639062290E1	1.408197165E0	2.478585690E-1	2.596177347E-2
1.640062290E1	1.348637700E0	2.396118939E-1	2.519819140E-2
1.641062290E1	1.301295638E0	2.336559594E-1	2.932153270E-2
1.642062290E1	1.231809735E0	2.168571651E-1	3.008511290E-2
1.643062290E1	1.155146122E0	2.002110779E-1	2.947424725E-2
1.644062290E1	1.078635335E0	1.992947906E-1	3.023782931E-2
1.645062290E1	1.011745572E0	1.947132945E-1	3.329215571E-2
1.646062290E1	9.472993016E-1	1.754710376E-1	3.878994286E-2
1.647062290E1	8.816312551E-1	1.562287807E-1	4.428773001E-2
1.648062290E1	8.268061280E-1	1.492038369E-1	4.718934000E-2
1.649062290E1	7.527387142E-1	1.372919679E-1	5.161811411E-2
1.650062290E1	6.724098921E-1	1.169806942E-1	5.726861581E-2
1.651062290E1	5.885686874E-1	9.178250283E-2	6.291911751E-2
1.652062290E1	5.021312237E-1	7.131851465E-2	6.612616032E-2
1.653062290E1	4.193589985E-1	5.955936015E-2	6.933320314E-2
1.654062290E1	3.514002264E-1	5.131268129E-2	7.238753140E-2
1.655062290E1	2.735149264E-1	3.695734590E-2	7.559457421E-2
1.656062290E1	1.992947906E-1	2.275473066E-2	7.987063378E-2
1.657062290E1	1.201877370E-1	4.734205548E-3	8.429940045E-2
1.658062290E1	3.756821156E-2	-9.468411095E-3	8.872817457E-2
1.659062290E1	-4.886921868E-2	-2.367102914E-2	8.949175477E-2
1.660062290E1	-1.218676195E-1	-3.680463135E-2	9.147707373E-2
1.661062290E1	-2.057088763E-1	-5.467243865E-2	9.224065393E-2
1.662062290E1	-2.872593701E-1	-7.147123665E-2	9.178250283E-2
1.663062290E1	-3.663664162E-1	-8.200865984E-2	9.010262042E-2
1.664062290E1	-4.418082833E-1	-9.147707373E-2	9.071348608E-2
1.665062290E1	-5.184718966E-1	-1.070541367E-1	8.659014851E-2
1.666062290E1	-5.841398835E-1	-1.189660057E-1	8.475755155E-2
1.667062290E1	-6.656904221E-1	-1.343903542E-1	7.819075137E-2
1.668062290E1	-7.461718917E-1	-1.426370293E-1	6.918048859E-2
1.669062290E1	-8.216137290E-1	-1.482875347E-1	5.894849449E-2
1.670062290E1	-8.897252083E-1	-1.540907621E-1	5.222897977E-2
1.671062290E1	-9.604328871E-1	-1.623374373E-1	3.817907721E-2
1.672062290E1	-1.015258074E0	-1.670716405E-1	3.023782931E-2
1.673062290E1	-1.085965633E0	-1.776090711E-1	1.496619824E-2
1.674062290E1	-1.156520605E0	-1.797471046E-1	2.290744567E-3
1.675062290E1	-1.222341299E0	-1.808161139E-1	-1.298088674E-2
1.676062290E1	-1.285718679E0	-1.841758788E-1	-2.947424725E-2
1.677062290E1	-1.349095941E0	-1.850921661E-1	-4.352414981E-2
1.678062290E1	-1.395368934E0	-1.861611903E-1	-6.017022580E-2
1.679062290E1	-1.448972344E0	-1.858557463E-1	-7.559457421E-2
1.680062290E1	-1.502728462E0	-1.879937798E-1	-9.346238524E-2
1.681062290E1	-1.558775425E0	-1.915062517E-1	-1.111774743E-1
1.682062290E1	-1.610088110E0	-1.985312104E-1	-1.302670091E-1
1.683062290E1	-1.660026312E0	-2.008219510E-1	-1.481348276E-1
1.684062290E1	-1.696678162E0	-2.031126916E-1	-1.635591686E-1
1.685062290E1	-1.738064289E0	-2.064724565E-1	-1.803579628E-1
1.686062290E1	-1.778381467E0	-2.160935849E-1	-1.994474977E-1
1.687062290E1	-1.816255093E0	-2.232712507E-1	-2.186897546E-1
1.688062290E1	-1.851685286E0	-2.280054539E-1	-2.354885489E-1
1.689062290E1	-1.882228494E0	-2.350303978E-1	-2.522873580E-1
1.690062290E1	-1.904219627E0	-2.448042482E-1	-2.654209435E-1
1.691062290E1	-1.930028796E0	-2.532036304E-1	-2.822197378E-1
1.692062290E1	-1.945911288E0	-2.652682364E-1	-2.991712391E-1
1.693062290E1	-1.948507428E0	-2.883284092E-1	-3.113885522E-1
1.694062290E1	-1.937664509E0	-2.811507285E-1	-3.225368559E-1
1.695062290E1	-1.917047858E0	-2.860376537E-1	-3.275764883E-1
1.696062290E1	-1.901318073E0	-2.970332205E-1	-3.313944042E-1
1.697062290E1	-1.881923079E0	-2.959642112E-1	-3.388774991E-1
1.698062290E1	-1.861306429E0	-2.947424948E-1	-3.451388776E-1
1.699062290E1	-1.829694152E0	-3.205515444E-1	-3.454442918E-1
1.700062290E1	-1.792125940E0	-3.400992155E-1	-3.445279896E-1
1.701062290E1	-1.738522530E0	-3.257438838E-1	-3.378084898E-1
1.702062290E1	-1.684919119E0	-3.162754774E-1	-3.346014321E-1
1.703062290E1	-1.618029356E0	-3.214678466E-1	-3.266601861E-1
1.704062290E1	-1.557248235E0	-3.265074790E-1	-3.199406862E-1
1.705062290E1	-1.499979615E0	-3.133738637E-1	-3.095559776E-1
1.706062290E1	-1.448666930E0	-3.159700334E-1	-2.965750694E-1
1.707062290E1	-1.390329242E0	-3.162754774E-1	-2.872593701E-1
1.708062290E1	-1.337947607E0	-3.141374588E-1	-2.768746614E-1
1.709062290E1	-1.269683361E0	-3.071125150E-1	-2.640464902E-1
1.710062290E1	-1.195310593E0	-2.952006161E-1	-2.452623993E-1
1.711062290E1	-1.124602914E0	-2.893974185E-1	-2.287690341E-1
1.712062290E1	-1.056338668E0	-2.823724449E-1	-2.122756690E-1
1.713062290E1	-9.906707406E-1	-2.741257846E-1	-1.970040351E-1
1.714062290E1	-9.369145632E-1	-2.609921694E-1	-1.829541475E-1
1.715062290E1	-8.674286604E-1	-2.429716438E-1	-1.652390510E-1
1.716062290E1	-7.930558324E-1	-2.275473028E-1	-1.440114826E-1
1.717062290E1	-7.186829448E-1	-2.095267773E-1	-1.275181174E-1
1.718062290E1	-6.369797587E-1	-1.843285859E-1	-1.087340117E-1
1.719062290E1	-5.442809463E-1	-1.299615800E-1	-9.132435173E-2
1.720062290E1	-4.833471179E-1	-1.423316002E-1	-7.605272532E-2
1.721062290E1	-4.237877727E-1	-1.646281779E-1	-6.078109145E-2
1.722062290E1	-3.602577746E-1	-1.343903542E-1	-4.428773001E-2
1.723062290E1	-2.895501256E-1	-8.231408894E-2	-2.657263726E-2
1.724062290E1	-2.138028294E-1	-6.200282276E-2	-6.566801574E-3
1.725062290E1	-1.308778822E-1	-3.558290005E-2	1.221730467E-2
1.726062290E1	-6.261368841E-2	-7.788531948E-3	2.504547499E-2
1.727062290E1	1.771509275E-2	2.748893574E-3	3.894266114E-2
1.728062290E1	9.575312585E-2	2.565634064E-2	5.283984542E-2
1.729062290E1	1.701259762E-1	5.207626149E-2	6.918048859E-2
1.730062290E1	2.408336252E-1	6.887505949E-2	8.689557761E-2
1.731062290E1	3.176499307E-1	1.050688252E-1	1.044579595E-1
1.732062290E1	3.871358633E-1	1.241583601E-1	1.148426682E-1
1.733062290E1	4.674646258E-1	1.201877370E-1	1.275181174E-1
1.734062290E1	5.418374538E-1	1.478293836E-1	1.365283877E-1
1.735062290E1	6.149885654E-1	1.780672222E-1	1.504255682E-1
1.736062290E1	6.844745278E-1	1.777617931E-1	1.632537395E-1
1.737062290E1	7.599163651E-1	1.980730593E-1	1.747074574E-1
1.738062290E1	8.220719099E-1	2.209804952E-1	1.840231568E-1
1.739062290E1	9.025533795E-1	2.364048511E-1	1.942551434E-1
1.740062290E1	9.731083512E-1	2.397646159E-1	2.008219510E-1
1.741062290E1	1.044885039E0	2.516764700E-1	2.099849284E-1
1.742062290E1	1.113149166E0	2.660318017E-1	2.167044431E-1
1.743062290E1	1.180038929E0	2.803871334E-1	2.222022265E-1
1.744062290E1	1.236085773E0	2.886338234E-1	2.277000248E-1
1.745062290E1	1.306640744E0	2.956587672E-1	2.344195396E-1
1.746062290E1	1.372461438E0	3.026837409E-1	2.399173230E-1
1.747062290E1	1.438129544E0	3.084869385E-1	2.405281961E-1
1.748062290E1	1.502575755E0	3.106249869E-1	2.435825169E-1
1.749062290E1	1.560913444E0	3.200933933E-1	2.429716438E-1
1.750062290E1	1.609629869E0	3.223841190E-1	2.449569702E-1
1.751062290E1	1.664302349E0	3.246748745E-1	2.444988191E-1
1.752062290E1	1.714240551E0	3.255911767E-1	2.440406680E-1
1.753062290E1	1.767691255E0	3.266601861E-1	2.397646159E-1
1.754062290E1	1.818698525E0	3.312416673E-1	2.344195396E-1
1.755062290E1	1.864971638E0	3.298672438E-1	2.292271852E-1
1.756062290E1	1.907426715E0	3.077233732E-1	2.251038402E-1
1.757062290E1	1.926669002E0	2.893974185E-1	2.212859392E-1
1.758062290E1	1.931555867E0	2.918408811E-1	2.163990140E-1
1.759062290E1	1.927737951E0	2.930625975E-1	2.017382532E-1
1.760062290E1	1.927585244E0	2.796235681E-1	1.870774776E-1
1.761062290E1	1.930028796E0	2.881756723E-1	1.760819107E-1
1.762062290E1	1.935984731E0	2.796235681E-1	1.675297916E-1
1.763062290E1	1.934762955E0	2.626720667E-1	1.614211351E-1
1.764062290E1	1.915215254E0	2.907718420E-1	1.493565589E-1
1.765062290E1	1.875050902E0	3.006984293E-1	1.327104717E-1
1.766062290E1	1.829846859E0	2.716823220E-1	1.232420653E-1
1.767062290E1	1.778686881E0	2.657263875E-1	1.104138941E-1
1.768062290E1	1.733482838E0	2.683225572E-1	9.728029370E-2
1.769062290E1	1.700648785E0	2.733621895E-1	9.040805697E-2
1.770062290E1	1.661706209E0	2.710714638E-1	8.338310570E-2
1.771062290E1	1.616654873E0	2.652682364E-1	7.895433158E-2
1.772062290E1	1.555721045E0	2.580905557E-1	7.330382615E-2
1.773062290E1	1.491274834E0	2.535090744E-1	6.902777404E-2
1.774062290E1	1.434158921E0	2.525927722E-1	6.352998316E-2
1.775062290E1	1.392772794E0	2.454151064E-1	6.276640296E-2
1.776062290E1	1.333060622E0	2.335032374E-1	6.078109145E-2
1.777062290E1	1.272279620E0	2.203696370E-1	6.139195710E-2
1.778062290E1	1.207833290E0	2.157881409E-1	6.444628537E-2
1.779062290E1	1.132391453E0	1.953241676E-1	6.505715102E-2
1.780062290E1	1.061836481E0	1.835650057E-1	6.215553731E-2
1.781062290E1	1.007164121E0	1.849394590E-1	6.505715102E-2
1.782062290E1	9.378308654E-1	1.742493063E-1	6.688974798E-2
1.783062290E1	8.744536042E-1	1.525636017E-1	6.994406879E-2
1.784062290E1	8.075638413E-1	1.334740520E-1	7.422012836E-2
1.785062290E1	7.345654368E-1	1.252273768E-1	7.620543987E-2
1.786062290E1	6.556110978E-1	1.157589629E-1	8.048149943E-2
1.787062290E1	5.923865438E-1	9.651670605E-2	8.353582025E-2
1.788062290E1	5.083925724E-1	7.009678334E-2	8.674286306E-2
1.789062290E1	4.256203473E-1	5.589416996E-2	8.872817457E-2
1.790062290E1	3.454442918E-1	4.520402849E-2	9.071348608E-2
1.791062290E1	2.663372457E-1	3.588833287E-2	9.147707373E-2
1.792062290E1	1.884519309E-1	2.031126991E-2	9.468411654E-2
1.793062290E1	1.264491081E-1	8.399397135E-3	9.651670605E-2
1.794062290E1	4.856378585E-2	-8.246680722E-3	9.957103431E-2
1.795062290E1	-3.543018550E-2	-2.138028294E-2	9.926560521E-2
1.796062290E1	-1.241583601E-1	-3.436116874E-2	9.880745411E-2
1.797062290E1	-2.081523389E-1	-4.993823543E-2	9.834930301E-2
1.798062290E1	-2.884811163E-1	-6.780604273E-2	9.666942805E-2
1.799062290E1	-3.480404615E-1	-7.727445662E-2	9.483683109E-2
1.800062290E1	-4.259257913E-1	-8.674286306E-2	9.056077152E-2
1.801062290E1	-5.025894046E-1	-9.728029370E-2	8.399397135E-2
1.802062290E1	-5.781839490E-1	-1.128573567E-1	7.987063378E-2
1.803062290E1	-6.597344875E-1	-1.221730486E-1	7.086037099E-2
1.804062290E1	-7.388415337E-1	-1.316414624E-1	6.307183951E-2
1.805062290E1	-7.961101532E-1	-1.374446750E-1	5.497787148E-2
1.806062290E1	-8.654433489E-1	-1.420261711E-1	4.230241850E-2
1.807062290E1	-9.349292517E-1	-1.466076523E-1	2.825251780E-2
1.808062290E1	-1.001971722E0	-1.548543423E-1	1.542434748E-2
1.809062290E1	-1.071457624E0	-1.643227488E-1	1.527163113E-4
1.810062290E1	-1.139569163E0	-1.652390510E-1	-1.618792862E-2
1.811062290E1	-1.193325281E0	-1.675297916E-1	-3.039054573E-2
1.812062290E1	-1.257771492E0	-1.696678251E-1	-4.688390717E-2
1.813062290E1	-1.317636371E0	-1.718058437E-1	-6.337726861E-2
1.814062290E1	-1.373683214E0	-1.763873398E-1	-8.368854225E-2
1.815062290E1	-1.429730058E0	-1.762346178E-1	-1.014036313E-1
1.816062290E1	-1.482264519E0	-1.808161139E-1	-1.217148975E-1
1.817062290E1	-1.523650646E0	-1.831068546E-1	-1.359175146E-1
1.818062290E1	-1.574963331E0	-1.889100820E-1	-1.550070494E-1
1.819062290E1	-1.623679876E0	-1.948660165E-1	-1.753183305E-1
1.820062290E1	-1.668883801E0	-1.970040351E-1	-1.944078654E-1
1.821062290E1	-1.712866187E0	-2.029599845E-1	-2.134974003E-1
1.822062290E1	-1.749518037E0	-2.101376504E-1	-2.315179259E-1
1.823062290E1	-1.777617812E0	-2.160935849E-1	-2.483167201E-1
1.824062290E1	-1.813048005E0	-2.269364446E-1	-2.651155293E-1
1.825062290E1	-1.843591332E0	-2.341141105E-1	-2.831360400E-1
1.826062290E1	-1.872912884E0	-2.412917763E-1	-2.974913716E-1
1.827062290E1	-1.897347450E0	-2.496911734E-1	-3.142901659E-1
1.828062290E1	-1.909717441E0	-2.727513313E-1	-3.287982047E-1
1.829062290E1	-1.913535357E0	-2.909245789E-1	-3.385720551E-1
1.830062290E1	-1.902692556E0	-2.837468982E-1	-3.497203588E-1
1.831062290E1	-1.884366512E0	-2.788599730E-1	-3.547599912E-1
1.832062290E1	-1.865124345E0	-3.032945991E-1	-3.597996235E-1
1.833062290E1	-1.846951127E0	-3.034473062E-1	-3.648392558E-1
1.834062290E1	-1.827403426E0	-3.022255898E-1	-3.698789179E-1
1.835062290E1	-1.802052498E0	-3.205515444E-1	-3.701843321E-1
1.836062290E1	-1.764331579E0	-3.463605940E-1	-3.680463135E-1
1.837062290E1	-1.715615034E0	-3.404046595E-1	-3.611740768E-1
1.838062290E1	-1.657124639E0	-3.260493279E-1	-3.532328308E-1
1.839062290E1	-1.590234995E0	-3.275764883E-1	-3.465133011E-1
1.840062290E1	-1.529453874E0	-3.364340365E-1	-3.397938013E-1
1.841062290E1	-1.485471606E0	-3.280346394E-1	-3.303253949E-1
1.842062290E1	-1.433089852E0	-3.234531581E-1	-3.185662329E-1
1.843062290E1	-1.375821233E0	-3.236058652E-1	-3.032945991E-1
1.844062290E1	-1.313818455E0	-3.263547719E-1	-2.929098904E-1
1.845062290E1	-1.244332552E0	-3.132211566E-1	-2.776382565E-1
1.846062290E1	-1.173624873E0	-3.000875413E-1	-2.588541508E-1
1.847062290E1	-1.117577910E0	-2.955060601E-1	-2.434297949E-1
1.848062290E1	-1.049161077E0	-2.884811163E-1	-2.246456891E-1
1.849062290E1	-9.834930301E-1	-2.802344263E-1	-2.105957866E-1
1.850062290E1	-9.150761366E-1	-2.646573782E-1	-1.928807050E-1
1.851062290E1	-8.504771590E-1	-2.480112910E-1	-1.751656085E-1
1.852062290E1	-7.773260474E-1	-2.312124968E-1	-1.551597714E-1
1.853062290E1	-7.176139355E-1	-2.168571651E-1	-1.372919679E-1
1.854062290E1	-6.420193911E-1	-1.965458989E-1	-1.185078546E-1
1.855062290E1	-5.566509366E-1	-1.579086632E-1	-1.009454802E-1
1.856062290E1	-4.737260044E-1	-1.253800988E-1	-8.353582025E-2
1.857062290E1	-4.042400718E-1	-1.499674171E-1	-6.337726861E-2
1.858062290E1	-3.445279896E-1	-1.368338168E-1	-4.688390717E-2
1.859062290E1	-2.883284092E-1	-9.330966324E-2	-3.512475267E-2
1.860062290E1	-2.176207453E-1	-6.200282276E-2	-1.389718428E-2
1.861062290E1	-1.408044398E-1	-5.009094998E-2	3.817907767E-3
1.862062290E1	-5.421429127E-2	-6.566801574E-3	2.122756653E-2
1.863062290E1	2.993239649E-2	1.252273750E-2	3.756821156E-2
1.864062290E1	1.030835137E-1	2.428189293E-2	5.390885845E-2
1.865062290E1	1.591303945E-1	5.085453019E-2	6.444628537E-2
1.866062290E1	2.298380435E-1	7.131851465E-2	8.445212245E-2
1.867062290E1	3.066543639E-1	9.285151958E-2	9.972374886E-2
1.868062290E1	3.895792961E-1	1.217148975E-1	1.146899462E-1
1.869062290E1	4.699080884E-1	1.360702366E-1	1.273654103E-1
1.870062290E1	5.442809463E-1	1.514945775E-1	1.426370293E-1
1.871062290E1	6.004805565E-1	1.768454909E-1	1.542434692E-1
1.872062290E1	6.685920358E-1	1.863138974E-1	1.658499092E-1
1.873062290E1	7.405213714E-1	2.018909603E-1	1.750128865E-1
1.874062290E1	8.208501935E-1	2.258674204E-1	1.864666194E-1
1.875062290E1	8.976664543E-1	2.400700450E-1	1.991420686E-1
1.876062290E1	9.708175659E-1	2.519819140E-1	2.105957866E-1
1.877062290E1	1.038929105E0	2.638937831E-1	2.197587788E-1
1.878062290E1	1.088867307E0	2.745839357E-1	2.254092693E-1
1.879062290E1	1.154688001E0	2.852740586E-1	2.284636050E-1
1.880062290E1	1.224021196E0	2.984076738E-1	2.351831198E-1
1.881062290E1	1.292132735E0	3.017674387E-1	2.431243658E-1
1.882062290E1	1.365283847E0	3.149010241E-1	2.484694421E-1
1.883062290E1	1.426064968E0	3.194825351E-1	2.539672256E-1
1.884062290E1	1.473559737E0	3.217732608E-1	2.559525371E-1
1.885062290E1	1.530675530E0	3.275764883E-1	2.554943860E-1
1.886062290E1	1.587944150E0	3.309362531E-1	2.561052442E-1
1.887062290E1	1.642616630E0	3.295617998E-1	2.580905557E-1
1.888062290E1	1.692402124E0	3.294090927E-1	2.564106882E-1
1.889062290E1	1.746005535E0	3.364340365E-1	2.571742535E-1
1.890062290E1	1.782352090E0	3.387247920E-1	2.532036304E-1
1.891062290E1	1.832290292E0	3.373503387E-1	2.490803003E-1
1.892062290E1	1.867415071E0	3.176499307E-1	2.461786866E-1
1.893062290E1	1.886810064E0	2.932153046E-1	2.374738604E-1
1.894062290E1	1.897652864E0	2.968805134E-1	2.338086665E-1
1.895062290E1	1.895209432E0	2.932153046E-1	2.264782935E-1
1.896062290E1	1.895056725E0	2.895501256E-1	2.154827118E-1
1.897062290E1	1.897347450E0	2.871066630E-1	2.020436823E-1
1.898062290E1	1.897347450E0	3.005456924E-1	1.934915632E-1
1.899062290E1	1.895972967E0	2.761110961E-1	1.886046380E-1
1.900062290E1	1.875203609E0	2.725986242E-1	1.765400618E-1
1.901062290E1	1.833817482E0	3.045163155E-1	1.598939747E-1
1.902062290E1	1.797318220E0	2.900082767E-1	1.516472995E-1
1.903062290E1	1.753335953E0	2.646573782E-1	1.423316002E-1
1.904062290E1	1.708284616E0	2.611449063E-1	1.330159009E-1
1.905062290E1	1.666898489E0	2.698497176E-1	1.198823079E-1
1.906062290E1	1.625512362E0	2.712241709E-1	1.105666086E-1
1.907062290E1	1.576795936E0	2.629774809E-1	1.098030284E-1
1.908062290E1	1.531744599E0	2.448042482E-1	1.078177169E-1
1.909062290E1	1.476919413E0	2.377792895E-1	1.009454802E-1
1.910062290E1	1.416138411E0	2.501493096E-1	9.178250283E-2
1.911062290E1	1.363756657E0	2.455678284E-1	8.979719132E-2
1.912062290E1	1.306488037E0	2.299907655E-1	9.040805697E-2
1.913062290E1	1.243263483E0	2.009746730E-1	9.086620808E-2
1.914062290E1	1.189660072E0	1.915062517E-1	9.147707373E-2
1.915062290E1	1.119105101E0	1.881465018E-1	8.597928286E-2
1.916062290E1	1.046106696E0	1.860084683E-1	8.429940045E-2
1.917062290E1	9.805914164E-1	1.850921661E-1	8.735372871E-2
1.918062290E1	9.172141552E-1	1.572978050E-1	9.025534242E-2
1.919062290E1	8.539896011E-1	1.307251602E-1	9.086620808E-2
1.920062290E1	7.979426980E-1	1.261436790E-1	9.025534242E-2
1.921062290E1	7.226535678E-1	1.276708394E-1	9.086620808E-2
1.922062290E1	6.447682381E-1	1.146899462E-1	9.285151958E-2
1.923062290E1	5.668829679E-1	8.078692853E-2	9.605856240E-2
1.924062290E1	4.877758920E-1	5.436700583E-2	9.804387391E-2
1.925062290E1	4.074471295E-1	5.345070735E-2	9.865473956E-2
1.926062290E1	3.478877544E-1	5.253441259E-2	9.926560521E-2
1.927062290E1	2.675589919E-1	4.184427112E-2	9.880745411E-2
1.928062290E1	1.896736622E-1	1.542434748E-2	9.957103431E-2
1.929062290E1	1.081231460E-1	-6.108652335E-3	1.015563458E-1
1.930062290E1	2.916881628E-2	-9.468411095E-3	9.865473956E-2
1.931062290E1	-5.360342562E-2	-1.527163107E-2	9.819658846E-2
1.932062290E1	-1.192714423E-1	-2.825251780E-2	9.758572280E-2
1.933062290E1	-1.971567571E-1	-4.749477282E-2	9.575312585E-2
1.934062290E1	-2.787072659E-1	-6.658431143E-2	9.162978828E-2
1.935062290E1	-3.565925956E-1	-6.994406879E-2	8.750644326E-2
1.936062290E1	-4.332561791E-1	-7.941248268E-2	8.216137439E-2
1.937062290E1	-5.076290369E-1	-9.361509979E-2	7.666359097E-2
1.938062290E1	-5.671883821E-1	-1.067487001E-1	6.994406879E-2
1.939062290E1	-6.464481354E-1	-1.198823079E-1	6.215553731E-2
1.940062290E1	-7.218900323E-1	-1.207986027E-1	4.948008433E-2
1.941062290E1	-7.936666608E-1	-1.241583601E-1	3.665191308E-2
1.942062290E1	-8.643743396E-1	-1.299615800E-1	2.397646010E-2
1.943062290E1	-9.314168096E-1	-1.417207420E-1	1.114829071E-2
1.944062290E1	-9.837985039E-1	-1.513418704E-1	-1.832595794E-3
1.945062290E1	-1.052062631E0	-1.547016203E-1	-1.954768784E-2
1.946062290E1	-1.120326877E0	-1.568396538E-1	-3.466660157E-2
1.947062290E1	-1.183704138E0	-1.553124934E-1	-5.238169432E-2
1.948062290E1	-1.245859623E0	-1.635591686E-1	-6.887505949E-2
1.949062290E1	-1.303128242E0	-1.669189334E-1	-9.040805697E-2
1.950062290E1	-1.348332286E0	-1.655444801E-1	-1.070541367E-1
1.951062290E1	-1.401935697E0	-1.690569520E-1	-1.273654103E-1
1.952062290E1	-1.454470158E0	-1.711949855E-1	-1.463022232E-1
1.953062290E1	-1.506851792E0	-1.806633919E-1	-1.641700417E-1
1.954062290E1	-1.558164477E0	-1.878410578E-1	-1.857030392E-1
1.955062290E1	-1.604590297E0	-1.924225539E-1	-2.060143054E-1
1.956062290E1	-1.638646007E0	-1.934915632E-1	-2.191479057E-1
1.957062290E1	-1.680184841E0	-2.006692290E-1	-2.394591719E-1
1.958062290E1	-1.718058467E0	-2.115120888E-1	-2.585487068E-1
1.959062290E1	-1.752267003E0	-2.197587788E-1	-2.777909636E-1
1.960062290E1	-1.786475420E0	-2.269364446E-1	-2.945897579E-1
1.961062290E1	-1.818240404E0	-2.365575731E-1	-3.101668358E-1
1.962062290E1	-1.839162588E0	-2.437352389E-1	-3.234531581E-1
1.963062290E1	-1.863597155E0	-2.533563673E-1	-3.390302062E-1
1.964062290E1	-1.874745488E0	-2.753475010E-1	-3.535382748E-1
1.965062290E1	-1.876119852E0	-2.910772860E-1	-3.657555580E-1
1.966062290E1	-1.862680793E0	-2.802344263E-1	-3.720169365E-1
1.967062290E1	-1.846951127E0	-2.912299931E-1	-3.770565689E-1
1.968062290E1	-1.828777790E0	-3.107776940E-1	-3.808744848E-1
1.969062290E1	-1.814269781E0	-3.058907688E-1	-3.846924007E-1
1.970062290E1	-1.797165513E0	-3.072652221E-1	-3.885102868E-1
1.971062290E1	-1.768149495E0	-3.341432810E-1	-3.888157308E-1
1.972062290E1	-1.724319816E0	-3.465133011E-1	-3.854559660E-1
1.973062290E1	-1.676825047E0	-3.478877544E-1	-3.749185503E-1
1.974062290E1	-1.634217262E0	-3.359758854E-1	-3.692680299E-1
1.975062290E1	-1.569770932E0	-3.338378668E-1	-3.637702465E-1
1.976062290E1	-1.506393671E0	-3.425426781E-1	-3.533855379E-1
1.977062290E1	-1.452790260E0	-3.379611969E-1	-3.428481221E-1
1.978062290E1	-1.400408626E0	-3.307835162E-1	-3.286454976E-1
1.979062290E1	-1.344361663E0	-3.310889602E-1	-3.145956099E-1
1.980062290E1	-1.295645237E0	-3.300199509E-1	-3.052799106E-1
1.981062290E1	-1.227380991E0	-3.193297982E-1	-2.900082767E-1
1.982062290E1	-1.157895088E0	-3.063489199E-1	-2.712241709E-1
1.983062290E1	-1.088409185E0	-3.017674387E-1	-2.522873580E-1
1.984062290E1	-1.022588372E0	-2.922990322E-1	-2.333505303E-1
1.985062290E1	-9.567676783E-1	-2.816088796E-1	-2.168571651E-1
1.986062290E1	-8.933904171E-1	-2.672535479E-1	-2.003637999E-1
1.987062290E1	-8.396342993E-1	-2.528982162E-1	-1.826487035E-1
1.988062290E1	-7.652614117E-1	-2.348776907E-1	-1.624901593E-1
1.989062290E1	-6.957755089E-1	-2.194533348E-1	-1.424843222E-1
1.990062290E1	-6.165157557E-1	-1.989893466E-1	-1.237002090E-1
1.991062290E1	-5.346598029E-1	-1.531744599E-1	-1.036943719E-1
1.992062290E1	-4.492913783E-1	-1.218676195E-1	-8.613199741E-2
1.993062290E1	-3.982841372E-1	-1.476766765E-1	-6.948592514E-2
1.994062290E1	-3.373503387E-1	-1.394299865E-1	-5.299255997E-2
1.995062290E1	-2.713768780E-1	-8.246681094E-2	-3.527746722E-2
1.996062290E1	-1.992947906E-1	-6.200282276E-2	-1.649336144E-2
1.997062290E1	-1.237002090E-1	-4.657847434E-2	3.665191587E-3
1.998062290E1	-3.466660157E-2	1.832595794E-3	2.107485011E-2
1.999062290E1	3.115412779E-2	1.007927675E-2	3.512475267E-2
2.000062290E1	1.030835137E-1	2.428189293E-2	5.024366826E-2
2.001062290E1	1.737911552E-1	6.062837690E-2	6.795875728E-2
2.002062290E1	2.432770878E-1	7.605272532E-2	8.567385375E-2
2.003062290E1	3.176499307E-1	9.896016866E-2	1.007927656E-1
